SubjectID,TrialNumber,Choice,ChoiceLabel,PlayChoice,ReactionTime,Card1,Card2,Card3,Card4,Card5,Card6,ExpectedValue,StandardDev,Condition,HighRT
1,94,1,Pass,0,2.9969,9,3,-9,0,0,0,1,9.16515139,3,1
1,95,2,Play,1,1.5724,-3,8,8,0,0,0,4.333333333,6.350852961,3,1
1,97,1,Pass,0,1.5275,2,-7,-8,0,0,0,-4.333333333,5.507570547,3,1
1,47,1,Pass,0,2.3737,2,1,-3,0,0,0,0,2.645751311,3,0
1,97,1,Pass,0,1.4906,9,-5,-8,0,0,0,-1.333333333,9.073771726,3,1
1,95,1,Pass,0,1.5074,-3,-9,-7,0,0,0,-6.333333333,3.055050463,3,1
1,32,2,Play,1,1.9917,3,6,-7,0,0,0,0.666666667,6.806859286,3,0
1,97,2,Play,1,0.9258,8,9,-5,0,0,0,4,7.810249676,3,1
1,47,2,Play,1,1.7093,1,2,-2,0,0,0,0.333333333,2.081665999,3,0
1,42,2,Play,1,1.3917,-4,3,5,0,0,0,1.333333333,4.725815626,3,0
1,47,1,Pass,0,1.8466,-4,2,-3,0,0,0,-1.666666667,3.214550254,3,0
1,97,1,Pass,0,1.8923,-7,-8,8,0,0,0,-2.333333333,8.96288644,3,1
1,47,1,Pass,0,1.2908,-4,-3,1,0,0,0,-2,2.645751311,3,0
1,32,2,Play,1,1.4954,2,4,6,0,0,0,4,2,3,0
1,91,2,Play,1,2.4591,9,-9,4,0,0,0,1.333333333,9.291573243,3,1
1,42,2,Play,1,0.9962,5,5,3,0,0,0,4.333333333,1.154700538,3,0
1,94,2,Play,1,1.0966,3,9,-7,0,0,0,1.666666667,8.082903769,3,1
1,95,2,Play,1,3.1593,8,7,-9,-3,8,-7,0.666666667,7.916228058,6,1
1,94,2,Play,1,0.7809,3,9,8,0,0,0,6.666666667,3.214550254,3,1
1,42,2,Play,1,1.9756,5,-1,3,0,0,0,2.333333333,3.055050463,3,0
1,42,2,Play,1,2.0762,-4,5,3,0,0,0,1.333333333,4.725815626,3,0
1,94,2,Play,1,1.2575,9,-9,8,0,0,0,2.666666667,10.11599394,3,1
1,42,2,Play,1,0.9957,5,5,-4,0,0,0,2,5.196152423,3,0
1,42,1,Pass,0,1.54,3,-4,-1,0,0,0,-0.666666667,3.511884584,3,0
1,47,1,Pass,0,1.4072,-3,-2,-4,0,0,0,-3,1,3,0
1,97,1,Pass,0,1.5768,-5,-8,-7,0,0,0,-6.666666667,1.527525232,3,1
1,47,1,Pass,0,1.1631,-4,-2,-3,-4,1,2,-1.666666667,2.581988897,6,0
1,10,1,Pass,0,1.0161,4,-6,-8,0,0,0,-3.333333333,6.429100507,3,0
1,94,1,Pass,0,0.797,-6,-9,8,0,0,0,-2.333333333,9.073771726,3,1
1,32,2,Play,1,1.3254,-7,2,6,0,0,0,0.333333333,6.658328118,3,0
1,10,1,Pass,0,1.2762,-8,-2,-7,0,0,0,-5.666666667,3.214550254,3,0
1,97,2,Play,1,1.3251,2,-5,8,0,0,0,1.666666667,6.506407099,3,1
1,91,2,Play,1,1.2421,4,9,-1,0,0,0,4,5,3,1
1,94,1,Pass,0,1.559,-9,3,-7,0,0,0,-4.333333333,6.429100507,3,1
1,94,2,Play,1,1.8789,8,9,-6,0,0,0,3.666666667,8.386497084,3,1
1,42,2,Play,1,1.4272,5,-1,3,0,0,0,2.333333333,3.055050463,3,0
1,47,1,Pass,0,1.4759,-4,-2,-4,0,0,0,-3.333333333,1.154700538,3,0
1,32,1,Pass,0,1.4966,2,-7,4,0,0,0,-0.333333333,5.859465277,3,0
1,42,2,Play,1,1.9099,5,-4,3,0,0,0,1.333333333,4.725815626,3,0
1,10,2,Play,1,1.6733,5,4,-8,0,0,0,0.333333333,7.234178138,3,0
1,47,1,Pass,0,1.3448,-3,-4,-2,0,0,0,-3,1,3,0
1,95,2,Play,1,1.0081,7,8,8,0,0,0,7.666666667,0.577350269,3,1
1,42,2,Play,1,2.0224,-4,5,3,0,0,0,1.333333333,4.725815626,3,0
1,32,2,Play,1,1.1298,6,2,3,0,0,0,3.666666667,2.081665999,3,0
1,94,1,Pass,0,1.5079,-6,-9,9,0,0,0,-2,9.643650761,3,1
1,32,2,Play,1,1.3747,6,4,3,0,0,0,4.333333333,1.527525232,3,0
1,94,1,Pass,0,1.7432,8,-7,3,0,0,0,1.333333333,7.637626158,3,1
1,10,1,Pass,0,1.4254,-7,-6,4,0,0,0,-3,6.08276253,3,0
1,94,2,Play,1,1.9448,8,-7,-9,-6,3,9,-0.333333333,7.991662322,6,1
1,91,1,Pass,0,1.5772,-8,4,-9,0,0,0,-4.333333333,7.234178138,3,1
1,42,1,Pass,0,2.8083,-1,-4,3,0,0,0,-0.666666667,3.511884584,3,0
1,42,2,Play,1,1.4289,3,5,-1,0,0,0,2.333333333,3.055050463,3,0
1,91,2,Play,1,1.1589,4,6,-1,0,0,0,3,3.605551275,3,1
1,97,2,Play,1,1.4104,-7,2,8,0,0,0,1,7.549834435,3,1
1,95,2,Play,1,0.9255,-3,8,7,0,0,0,4,6.08276253,3,1
1,47,1,Pass,0,1.4598,-4,-3,-4,0,0,0,-3.666666667,0.577350269,3,0
1,95,2,Play,1,1.5746,8,8,-7,0,0,0,3,8.660254038,3,1
1,91,2,Play,1,0.8261,4,9,6,0,0,0,6.333333333,2.516611478,3,1
1,94,1,Pass,0,2.9468,-7,8,-9,0,0,0,-2.666666667,9.291573243,3,1
1,91,2,Play,1,1.3422,9,6,-8,0,0,0,2.333333333,9.073771726,3,1
1,10,2,Play,1,1.0254,5,4,-7,0,0,0,0.666666667,6.658328118,3,0
1,97,1,Pass,0,2.9126,2,8,-8,0,0,0,0.666666667,8.082903769,3,1
1,47,1,Pass,0,1.85,1,-4,-4,0,0,0,-2.333333333,2.886751346,3,0
1,10,2,Play,1,1.5812,4,5,-2,0,0,0,2.333333333,3.785938897,3,0
1,91,1,Pass,0,1.1083,-8,-9,6,0,0,0,-3.666666667,8.386497084,3,1
1,91,1,Pass,0,1.7133,-1,-8,4,0,0,0,-1.666666667,6.027713773,3,1
1,47,1,Pass,0,2.0923,2,-2,-4,0,0,0,-1.333333333,3.055050463,3,0
1,95,2,Play,1,1.2756,7,8,-7,0,0,0,2.666666667,8.386497084,3,1
1,47,1,Pass,0,1.0254,2,-4,-4,0,0,0,-2,3.464101615,3,0
1,94,1,Pass,0,1.5086,-7,9,-9,0,0,0,-2.333333333,9.865765725,3,1
1,97,1,Pass,0,2.5277,-8,2,-5,0,0,0,-3.666666667,5.131601439,3,1
1,94,1,Pass,0,0.8425,8,-6,-7,0,0,0,-1.666666667,8.386497084,3,1
1,94,2,Play,1,1.4088,9,8,-7,0,0,0,3.333333333,8.96288644,3,1
1,95,2,Play,1,1.692,8,-9,7,0,0,0,2,9.539392014,3,1
1,97,2,Play,1,0.9474,2,9,-7,0,0,0,1.333333333,8.020806277,3,1
1,32,2,Play,1,1.5591,3,-7,4,2,6,6,2.333333333,4.844240567,6,0
1,10,1,Pass,0,1.7449,-2,-6,4,0,0,0,-1.333333333,5.033222957,3,0
1,32,2,Play,1,1.0431,3,6,2,0,0,0,3.666666667,2.081665999,3,0
1,10,2,Play,1,2.179,-2,-7,5,0,0,0,-1.333333333,6.027713773,3,0
1,94,1,Pass,0,1.5922,-7,-6,-9,0,0,0,-7.333333333,1.527525232,3,1
1,91,1,Pass,0,1.1245,-1,-9,-8,0,0,0,-6,4.358898944,3,1
1,94,2,Play,1,1.0922,-9,3,8,0,0,0,0.666666667,8.736894948,3,1
1,95,1,Pass,0,1.2755,-7,-9,8,0,0,0,-2.666666667,9.291573243,3,1
1,47,1,Pass,0,0.8257,-3,-4,2,0,0,0,-1.666666667,3.214550254,3,0
1,10,1,Pass,0,1.0753,-8,5,-2,0,0,0,-1.666666667,6.506407099,3,0
1,32,2,Play,1,1.1922,4,6,6,0,0,0,5.333333333,1.154700538,3,0
1,10,1,Pass,0,1.1587,-8,-2,-6,0,0,0,-5.333333333,3.055050463,3,0
1,32,2,Play,1,1.229,4,3,-7,0,0,0,0,6.08276253,3,0
1,47,1,Pass,0,1.6285,1,-2,-4,0,0,0,-1.666666667,2.516611478,3,0
1,32,2,Play,1,1.7265,4,2,6,0,0,0,4,2,3,0
1,91,2,Play,1,0.8926,-8,6,4,0,0,0,0.666666667,7.571877794,3,1
1,42,2,Play,1,0.709,5,3,5,0,0,0,4.333333333,1.154700538,3,0
1,32,2,Play,1,1.9591,6,-7,4,0,0,0,1,7,3,0
1,47,1,Pass,0,2.0432,-4,1,2,0,0,0,-0.333333333,3.214550254,3,0
1,47,1,Pass,0,2.0266,2,-2,-3,0,0,0,-1,2.645751311,3,0
1,10,1,Pass,0,2.1093,4,-6,5,0,0,0,1,6.08276253,3,0
1,10,1,Pass,0,2.3973,-2,-8,-7,4,-6,5,-2.333333333,5.680375574,6,0
1,97,2,Play,1,0.6964,2,8,9,0,0,0,6.333333333,3.785938897,3,1
1,91,1,Pass,0,3.1117,-1,4,-9,0,0,0,-2,6.557438524,3,1
1,91,2,Play,1,2.3416,9,-8,4,0,0,0,1.666666667,8.736894948,3,1
1,91,2,Play,1,1.1425,6,-9,9,0,0,0,2,9.643650761,3,1
1,42,2,Play,1,0.6423,5,3,3,0,0,0,3.666666667,1.154700538,3,0
1,10,1,Pass,0,1.6922,-2,5,-6,0,0,0,-1,5.567764363,3,0
1,95,2,Play,1,3.0466,7,-3,8,0,0,0,4,6.08276253,3,1
1,97,1,Pass,0,1.7418,-7,8,-5,0,0,0,-1.333333333,8.144527815,3,1
1,91,1,Pass,0,2.9414,-9,-8,9,0,0,0,-2.666666667,10.11599394,3,1
1,10,1,Pass,0,1.7576,-7,-2,-6,0,0,0,-5,2.645751311,3,0
1,10,1,Pass,0,1.2406,-6,-7,5,0,0,0,-2.666666667,6.658328118,3,0
1,91,1,Pass,0,0.8755,6,-8,-1,0,0,0,-1,7,3,1
1,95,1,Pass,0,0.9588,-9,-7,8,0,0,0,-2.666666667,9.291573243,3,1
1,95,1,Pass,0,0.798,7,-3,-9,0,0,0,-1.666666667,8.082903769,3,1
1,32,1,Pass,0,4.0078,2,-7,3,0,0,0,-0.666666667,5.507570547,3,0
1,94,2,Play,1,2.8935,3,-6,8,0,0,0,1.666666667,7.094598885,3,1
1,10,1,Pass,0,2.0772,-2,-7,4,0,0,0,-1.666666667,5.507570547,3,0
1,91,1,Pass,0,1.6409,-8,9,-1,0,0,0,0,8.544003745,3,1
1,42,2,Play,1,1.325,3,3,-1,0,0,0,1.666666667,2.309401077,3,0
1,95,1,Pass,0,2.1651,-3,-7,7,0,0,0,-1,7.211102551,3,1
1,10,1,Pass,0,1.1754,-7,-8,5,0,0,0,-3.333333333,7.234178138,3,0
1,42,2,Play,1,1.3255,5,5,-1,0,0,0,3,3.464101615,3,0
1,94,1,Pass,0,1.4807,-7,3,-6,0,0,0,-3.333333333,5.507570547,3,1
1,95,2,Play,1,1.3406,7,8,-7,0,0,0,2.666666667,8.386497084,3,1
1,32,2,Play,1,1.4257,6,6,-7,0,0,0,1.666666667,7.505553499,3,0
1,95,1,Pass,0,1.1624,-9,8,-3,0,0,0,-1.333333333,8.621678104,3,1
1,91,1,Pass,0,1.276,9,-9,-1,0,0,0,-0.333333333,9.018499506,3,1
1,10,1,Pass,0,1.2586,-8,-6,-7,0,0,0,-7,1,3,0
1,32,2,Play,1,1.3754,3,6,6,0,0,0,5,1.732050808,3,0
1,91,2,Play,1,2.3923,-9,4,6,0,0,0,0.333333333,8.144527815,3,1
1,10,1,Pass,0,1.9484,-8,-6,5,0,0,0,-3,7,3,0
1,97,2,Play,1,1.0211,9,8,-8,0,0,0,3,9.539392014,3,1
1,95,1,Pass,0,1.6921,7,-7,-9,0,0,0,-3,8.717797887,3,1
1,97,1,Pass,0,1.2304,9,-7,-5,0,0,0,-1,8.717797887,3,1
1,97,2,Play,1,1.8093,2,-5,9,0,0,0,2,7,3,1
1,95,1,Pass,0,2.4972,-7,8,-3,0,0,0,-0.666666667,7.767453465,3,1
1,91,1,Pass,0,1.6239,-9,6,-1,0,0,0,-1.333333333,7.505553499,3,1
1,94,2,Play,1,2.0422,-6,3,9,0,0,0,2,7.549834435,3,1
1,95,1,Pass,0,1.8919,-3,-7,8,0,0,0,-0.666666667,7.767453465,3,1
1,32,2,Play,1,1.3084,2,3,4,0,0,0,3,1,3,0
1,32,2,Play,1,4.0591,2,6,-7,0,0,0,0.333333333,6.658328118,3,0
1,42,2,Play,1,1.4901,-1,3,5,0,0,0,2.333333333,3.055050463,3,0
1,97,2,Play,1,0.816,8,9,-7,0,0,0,3.333333333,8.96288644,3,1
1,42,2,Play,1,0.6756,3,3,-4,0,0,0,0.666666667,4.041451884,3,0
1,47,1,Pass,0,1.6088,1,-4,-3,0,0,0,-2,2.645751311,3,0
1,42,1,Pass,0,2.0091,-1,-4,5,0,0,0,0,4.582575695,3,0
1,95,1,Pass,0,1.8744,-3,-9,8,0,0,0,-1.333333333,8.621678104,3,1
1,42,1,Pass,0,2.9421,-4,-1,5,0,0,0,0,4.582575695,3,0
1,10,1,Pass,0,1.2753,4,-8,-2,0,0,0,-2,6,3,0
1,95,2,Play,1,1.8642,8,8,-9,0,0,0,2.333333333,9.814954576,3,1
1,97,2,Play,1,2.9767,9,2,-8,0,0,0,1,8.544003745,3,1
1,10,1,Pass,0,1.3417,4,-8,-7,0,0,0,-3.666666667,6.658328118,3,0
1,32,2,Play,1,1.9075,6,4,-7,0,0,0,1,7,3,0
1,32,2,Play,1,0.7929,2,6,6,0,0,0,4.666666667,2.309401077,3,0
1,91,2,Play,1,1.4753,-1,9,6,0,0,0,4.666666667,5.131601439,3,1
1,97,2,Play,1,1.8306,2,9,-5,-7,8,-8,-0.166666667,7.574078602,6,1
1,97,1,Pass,0,1.3263,2,-7,-5,0,0,0,-3.333333333,4.725815626,3,1
1,94,1,Pass,0,2.2591,-6,9,-7,0,0,0,-1.333333333,8.96288644,3,1
1,47,1,Pass,0,2.9923,-2,1,-3,0,0,0,-1.333333333,2.081665999,3,0
1,42,2,Play,1,1.2088,3,3,5,0,0,0,3.666666667,1.154700538,3,0
1,47,2,Play,1,5.2257,-4,1,2,0,0,0,-0.333333333,3.214550254,3,0
1,47,1,Pass,0,1.4939,-2,-4,2,0,0,0,-1.333333333,3.055050463,3,0
1,32,2,Play,1,1.8651,-7,3,6,0,0,0,0.666666667,6.806859286,3,0
1,32,2,Play,1,0.9089,6,3,4,0,0,0,4.333333333,1.527525232,3,0
1,95,2,Play,1,1.024,7,8,-9,0,0,0,2,9.539392014,3,1
1,91,1,Pass,0,4.5926,6,-9,9,-8,4,-1,0.166666667,7.467708261,6,1
1,97,1,Pass,0,1.7468,-8,9,-7,0,0,0,-2,9.539392014,3,1
1,47,1,Pass,0,1.879,1,-2,-4,0,0,0,-1.666666667,2.516611478,3,0
1,94,1,Pass,0,1.4649,3,-9,-6,0,0,0,-4,6.244997998,3,1
1,42,2,Play,1,1.9413,5,-1,5,3,3,-4,1.833333333,3.600925807,6,0
1,97,1,Pass,0,1.6263,-8,-5,8,0,0,0,-1.666666667,8.504900548,3,1
2,91,2,Play,1,2.1634,4,9,-1,0,0,0,4,5,3,1
2,95,1,Pass,0,0.9953,-3,-7,8,0,0,0,-0.666666667,7.767453465,3,1
2,32,1,Pass,0,1.3843,-7,2,6,0,0,0,0.333333333,6.658328118,3,0
2,32,2,Play,1,1.2033,6,6,-7,0,0,0,1.666666667,7.505553499,3,0
2,91,2,Play,1,1.3577,-8,6,4,0,0,0,0.666666667,7.571877794,3,1
2,47,1,Pass,0,1.1071,2,1,-3,0,0,0,0,2.645751311,3,0
2,42,2,Play,1,1.3544,-1,3,5,0,0,0,2.333333333,3.055050463,3,0
2,47,1,Pass,0,1.1502,1,-4,-3,0,0,0,-2,2.645751311,3,0
2,10,1,Pass,0,0.864,-6,-7,5,0,0,0,-2.666666667,6.658328118,3,0
2,42,1,Pass,0,0.9825,3,-4,-1,0,0,0,-0.666666667,3.511884584,3,0
2,47,1,Pass,0,0.9371,-4,1,2,0,0,0,-0.333333333,3.214550254,3,0
2,97,1,Pass,0,0.8038,2,-7,-5,0,0,0,-3.333333333,4.725815626,3,1
2,95,1,Pass,0,0.7843,7,-7,-9,0,0,0,-3,8.717797887,3,1
2,47,1,Pass,0,0.7931,2,-2,-3,0,0,0,-1,2.645751311,3,0
2,94,1,Pass,0,0.8649,-7,9,-9,0,0,0,-2.333333333,9.865765725,3,1
2,91,1,Pass,0,0.9418,6,-9,9,-8,4,-1,0.166666667,7.467708261,6,1
2,42,2,Play,1,1.215,5,3,3,0,0,0,3.666666667,1.154700538,3,0
2,97,1,Pass,0,0.9878,-8,2,-5,0,0,0,-3.666666667,5.131601439,3,1
2,42,2,Play,1,1.4144,5,-4,3,0,0,0,1.333333333,4.725815626,3,0
2,32,2,Play,1,0.7054,2,3,4,0,0,0,3,1,3,0
2,42,2,Play,1,1.2171,5,5,-1,0,0,0,3,3.464101615,3,0
2,10,1,Pass,0,1.1083,-8,5,-2,0,0,0,-1.666666667,6.506407099,3,0
2,10,1,Pass,0,0.7761,4,-8,-7,0,0,0,-3.666666667,6.658328118,3,0
2,94,1,Pass,0,0.7171,-6,-9,9,0,0,0,-2,9.643650761,3,1
2,47,1,Pass,0,0.8264,2,-2,-4,0,0,0,-1.333333333,3.055050463,3,0
2,10,1,Pass,0,0.7703,-7,-2,-6,0,0,0,-5,2.645751311,3,0
2,91,1,Pass,0,0.7237,-1,-8,4,0,0,0,-1.666666667,6.027713773,3,1
2,97,1,Pass,0,1.6934,-7,2,8,0,0,0,1,7.549834435,3,1
2,95,1,Pass,0,0.7254,-9,-7,8,0,0,0,-2.666666667,9.291573243,3,1
2,42,2,Play,1,1.2087,5,-1,3,0,0,0,2.333333333,3.055050463,3,0
2,42,1,Pass,0,0.9892,-1,-4,5,0,0,0,0,4.582575695,3,0
2,95,2,Play,1,0.9291,7,8,8,0,0,0,7.666666667,0.577350269,3,1
2,91,1,Pass,0,1.4808,9,-9,4,0,0,0,1.333333333,9.291573243,3,1
2,94,2,Play,1,1.032,3,9,-7,0,0,0,1.666666667,8.082903769,3,1
2,32,2,Play,1,0.6912,4,6,6,0,0,0,5.333333333,1.154700538,3,0
2,94,2,Play,1,0.8627,3,9,8,0,0,0,6.666666667,3.214550254,3,1
2,32,2,Play,1,0.6913,2,6,6,0,0,0,4.666666667,2.309401077,3,0
2,97,2,Play,1,1.8706,2,-5,8,0,0,0,1.666666667,6.506407099,3,1
2,10,1,Pass,0,1.2366,5,4,-7,0,0,0,0.666666667,6.658328118,3,0
2,95,1,Pass,0,0.6257,-3,-9,-7,0,0,0,-6.333333333,3.055050463,3,1
2,47,1,Pass,0,0.7867,-2,1,-3,0,0,0,-1.333333333,2.081665999,3,0
2,94,1,Pass,0,0.9507,9,-9,8,0,0,0,2.666666667,10.11599394,3,1
2,32,2,Play,1,1.1391,3,6,2,0,0,0,3.666666667,2.081665999,3,0
2,94,1,Pass,0,1.0417,8,-6,-7,0,0,0,-1.666666667,8.386497084,3,1
2,42,1,Pass,0,0.9419,-4,-1,5,0,0,0,0,4.582575695,3,0
2,95,1,Pass,0,0.6978,-7,-9,8,0,0,0,-2.666666667,9.291573243,3,1
2,91,1,Pass,0,0.716,-8,-9,6,0,0,0,-3.666666667,8.386497084,3,1
2,42,2,Play,1,1.0519,5,3,5,0,0,0,4.333333333,1.154700538,3,0
2,91,1,Pass,0,1.1395,9,-9,-1,0,0,0,-0.333333333,9.018499506,3,1
2,94,2,Play,1,0.9034,-9,3,8,0,0,0,0.666666667,8.736894948,3,1
2,10,1,Pass,0,1.0284,-2,-7,5,0,0,0,-1.333333333,6.027713773,3,0
2,91,2,Play,1,1.1038,-1,9,6,0,0,0,4.666666667,5.131601439,3,1
2,91,1,Pass,0,0.9426,-9,-8,9,0,0,0,-2.666666667,10.11599394,3,1
2,91,1,Pass,0,0.7693,-9,6,-1,0,0,0,-1.333333333,7.505553499,3,1
2,97,1,Pass,0,1.7037,2,8,-8,0,0,0,0.666666667,8.082903769,3,1
2,10,1,Pass,0,1.7755,4,-6,5,0,0,0,1,6.08276253,3,0
2,97,2,Play,1,1.0832,9,8,-8,0,0,0,3,9.539392014,3,1
2,32,1,Pass,0,1.0146,2,-7,3,0,0,0,-0.666666667,5.507570547,3,0
2,94,1,Pass,0,0.7578,-6,9,-7,0,0,0,-1.333333333,8.96288644,3,1
2,95,1,Pass,0,0.6705,-3,-9,8,0,0,0,-1.333333333,8.621678104,3,1
2,94,2,Play,1,1.183,8,9,-6,0,0,0,3.666666667,8.386497084,3,1
2,47,1,Pass,0,0.8719,2,-4,-4,0,0,0,-2,3.464101615,3,0
2,91,1,Pass,0,0.663,6,-8,-1,0,0,0,-1,7,3,1
2,95,2,Play,1,1.1366,-3,8,7,0,0,0,4,6.08276253,3,1
2,97,1,Pass,0,1.9067,2,9,-5,-7,8,-8,-0.166666667,7.574078602,6,1
2,97,1,Pass,0,0.6825,-7,-8,8,0,0,0,-2.333333333,8.96288644,3,1
2,91,1,Pass,0,0.6879,-1,4,-9,0,0,0,-2,6.557438524,3,1
2,97,1,Pass,0,0.6614,-8,9,-7,0,0,0,-2,9.539392014,3,1
2,32,2,Play,1,1.1961,6,4,3,0,0,0,4.333333333,1.527525232,3,0
2,47,1,Pass,0,0.9621,-4,-3,-4,0,0,0,-3.666666667,0.577350269,3,0
2,47,1,Pass,0,0.7731,1,2,-2,0,0,0,0.333333333,2.081665999,3,0
2,10,1,Pass,0,0.6384,-7,-6,4,0,0,0,-3,6.08276253,3,0
2,32,2,Play,1,0.9534,3,6,6,0,0,0,5,1.732050808,3,0
2,95,2,Play,1,0.7812,-3,8,8,0,0,0,4.333333333,6.350852961,3,1
2,95,1,Pass,0,1.0379,-9,8,-3,0,0,0,-1.333333333,8.621678104,3,1
2,91,2,Play,1,0.9878,4,9,6,0,0,0,6.333333333,2.516611478,3,1
2,91,1,Pass,0,0.8836,-1,-9,-8,0,0,0,-6,4.358898944,3,1
2,42,1,Pass,0,1.8304,3,3,-4,0,0,0,0.666666667,4.041451884,3,0
2,32,2,Play,1,1.1921,4,2,6,0,0,0,4,2,3,0
2,32,1,Pass,0,1.8526,6,4,-7,0,0,0,1,7,3,0
2,95,1,Pass,0,0.8189,-3,-7,7,0,0,0,-1,7.211102551,3,1
2,91,1,Pass,0,0.7243,9,-8,4,0,0,0,1.666666667,8.736894948,3,1
2,32,1,Pass,0,0.8933,4,3,-7,0,0,0,0,6.08276253,3,0
2,94,1,Pass,0,0.6039,-7,-6,-9,0,0,0,-7.333333333,1.527525232,3,1
2,97,1,Pass,0,0.6731,9,-7,-5,0,0,0,-1,8.717797887,3,1
2,97,1,Pass,0,2.1871,9,2,-8,0,0,0,1,8.544003745,3,1
2,97,2,Play,1,1.1493,8,9,-5,0,0,0,4,7.810249676,3,1
2,94,1,Pass,0,1.1217,-7,8,-9,0,0,0,-2.666666667,9.291573243,3,1
2,97,1,Pass,0,0.6261,-5,-8,-7,0,0,0,-6.666666667,1.527525232,3,1
2,10,1,Pass,0,0.7705,-7,-8,5,0,0,0,-3.333333333,7.234178138,3,0
2,94,1,Pass,0,0.6931,-6,-9,8,0,0,0,-2.333333333,9.073771726,3,1
2,47,1,Pass,0,0.6305,-2,-4,2,0,0,0,-1.333333333,3.055050463,3,0
2,47,1,Pass,0,0.759,1,-4,-4,0,0,0,-2.333333333,2.886751346,3,0
2,32,1,Pass,0,1.7828,6,-7,4,0,0,0,1,7,3,0
2,97,1,Pass,0,0.7287,9,-5,-8,0,0,0,-1.333333333,9.073771726,3,1
2,42,2,Play,1,1.0971,3,3,5,0,0,0,3.666666667,1.154700538,3,0
2,32,2,Play,1,1.255,3,-7,4,2,6,6,2.333333333,4.844240567,6,0
2,42,2,Play,1,1.1887,-4,3,5,0,0,0,1.333333333,4.725815626,3,0
2,94,1,Pass,0,1.07,3,-9,-6,0,0,0,-4,6.244997998,3,1
2,42,2,Play,1,1.3368,5,5,-4,0,0,0,2,5.196152423,3,0
2,10,1,Pass,0,0.9643,4,-6,-8,0,0,0,-3.333333333,6.429100507,3,0
2,95,1,Pass,0,0.8629,7,-3,-9,0,0,0,-1.666666667,8.082903769,3,1
2,97,2,Play,1,1.1738,8,9,-7,0,0,0,3.333333333,8.96288644,3,1
2,97,1,Pass,0,1.0578,-8,-5,8,0,0,0,-1.666666667,8.504900548,3,1
2,95,2,Play,1,1.6491,7,8,-9,0,0,0,2,9.539392014,3,1
2,94,2,Play,1,1.4258,-6,3,9,0,0,0,2,7.549834435,3,1
2,42,2,Play,1,1.1083,5,-1,3,0,0,0,2.333333333,3.055050463,3,0
2,42,2,Play,1,1.0381,5,-1,5,3,3,-4,1.833333333,3.600925807,6,0
2,32,2,Play,1,0.9654,6,3,4,0,0,0,4.333333333,1.527525232,3,0
2,91,1,Pass,0,1.1057,-8,4,-9,0,0,0,-4.333333333,7.234178138,3,1
2,97,1,Pass,0,0.7823,2,9,-7,0,0,0,1.333333333,8.020806277,3,1
2,91,1,Pass,0,1.0275,9,6,-8,0,0,0,2.333333333,9.073771726,3,1
2,10,1,Pass,0,0.5611,-2,-6,4,0,0,0,-1.333333333,5.033222957,3,0
2,94,1,Pass,0,0.6305,-7,3,-6,0,0,0,-3.333333333,5.507570547,3,1
2,32,1,Pass,0,0.9243,-7,3,6,0,0,0,0.666666667,6.806859286,3,0
2,42,1,Pass,0,0.6144,-1,-4,3,0,0,0,-0.666666667,3.511884584,3,0
2,47,1,Pass,0,0.5703,-4,2,-3,0,0,0,-1.666666667,3.214550254,3,0
2,97,1,Pass,0,0.6531,-7,8,-5,0,0,0,-1.333333333,8.144527815,3,1
2,42,2,Play,1,1.5479,3,3,-1,0,0,0,1.666666667,2.309401077,3,0
2,10,1,Pass,0,0.8855,-8,-6,-7,0,0,0,-7,1,3,0
2,32,1,Pass,0,0.6611,2,6,-7,0,0,0,0.333333333,6.658328118,3,0
2,94,1,Pass,0,0.9847,9,3,-9,0,0,0,1,9.16515139,3,1
2,10,1,Pass,0,0.559,-8,-6,5,0,0,0,-3,7,3,0
2,10,1,Pass,0,0.5282,-2,-7,4,0,0,0,-1.666666667,5.507570547,3,0
2,91,2,Play,1,1.8541,4,6,-1,0,0,0,3,3.605551275,3,1
2,95,2,Play,1,1.7069,7,-3,8,0,0,0,4,6.08276253,3,1
2,47,1,Pass,0,0.8926,-3,-4,2,0,0,0,-1.666666667,3.214550254,3,0
2,32,1,Pass,0,0.8616,2,-7,4,0,0,0,-0.333333333,5.859465277,3,0
2,94,1,Pass,0,0.704,3,-6,8,0,0,0,1.666666667,7.094598885,3,1
2,91,1,Pass,0,0.8653,6,-9,9,0,0,0,2,9.643650761,3,1
2,94,2,Play,1,1.7943,9,8,-7,0,0,0,3.333333333,8.96288644,3,1
2,47,1,Pass,0,0.8482,-4,-3,1,0,0,0,-2,2.645751311,3,0
2,32,2,Play,1,1.0615,6,2,3,0,0,0,3.666666667,2.081665999,3,0
2,10,1,Pass,0,1.1583,-2,5,-6,0,0,0,-1,5.567764363,3,0
2,94,1,Pass,0,1.0407,-9,3,-7,0,0,0,-4.333333333,6.429100507,3,1
2,32,2,Play,1,0.9254,2,4,6,0,0,0,4,2,3,0
2,97,2,Play,1,0.9817,2,8,9,0,0,0,6.333333333,3.785938897,3,1
2,47,1,Pass,0,0.9544,-4,-2,-4,0,0,0,-3.333333333,1.154700538,3,0
2,97,1,Pass,0,1.6609,2,-5,9,0,0,0,2,7,3,1
2,10,1,Pass,0,0.6246,4,-8,-2,0,0,0,-2,6,3,0
2,95,1,Pass,0,1.0827,8,-9,7,0,0,0,2,9.539392014,3,1
2,94,1,Pass,0,1.7039,8,-7,-9,-6,3,9,-0.333333333,7.991662322,6,1
2,42,2,Play,1,1.2632,-4,5,3,0,0,0,1.333333333,4.725815626,3,0
2,10,2,Play,1,1.0499,4,5,-2,0,0,0,2.333333333,3.785938897,3,0
2,91,1,Pass,0,1.4208,-9,4,6,0,0,0,0.333333333,8.144527815,3,1
2,47,1,Pass,0,0.819,-4,-2,-3,-4,1,2,-1.666666667,2.581988897,6,0
2,32,1,Pass,0,0.8046,3,6,-7,0,0,0,0.666666667,6.806859286,3,0
2,47,1,Pass,0,0.553,1,-2,-4,0,0,0,-1.666666667,2.516611478,3,0
2,95,1,Pass,0,1.3042,7,8,-7,0,0,0,2.666666667,8.386497084,3,1
2,94,1,Pass,0,0.95,8,-7,3,0,0,0,1.333333333,7.637626158,3,1
2,95,1,Pass,0,1.2859,7,8,-7,0,0,0,2.666666667,8.386497084,3,1
2,42,2,Play,1,1.2887,-4,5,3,0,0,0,1.333333333,4.725815626,3,0
2,42,2,Play,1,0.9636,3,5,-1,0,0,0,2.333333333,3.055050463,3,0
2,95,1,Pass,0,1.7815,8,8,-9,0,0,0,2.333333333,9.814954576,3,1
2,10,1,Pass,0,0.5707,-8,-2,-6,0,0,0,-5.333333333,3.055050463,3,0
2,95,2,Play,1,2.4082,8,7,-9,-3,8,-7,0.666666667,7.916228058,6,1
2,47,1,Pass,0,1.3953,-3,-4,-2,0,0,0,-3,1,3,0
2,47,1,Pass,0,0.7514,-4,1,2,0,0,0,-0.333333333,3.214550254,3,0
2,10,1,Pass,0,0.519,-8,-2,-7,0,0,0,-5.666666667,3.214550254,3,0
2,42,2,Play,1,1.1714,5,5,3,0,0,0,4.333333333,1.154700538,3,0
2,10,1,Pass,0,0.8754,-2,-8,-7,4,-6,5,-2.333333333,5.680375574,6,0
2,47,1,Pass,0,0.7215,-3,-2,-4,0,0,0,-3,1,3,0
2,91,1,Pass,0,0.5893,-8,9,-1,0,0,0,0,8.544003745,3,1
2,47,1,Pass,0,0.5828,1,-2,-4,0,0,0,-1.666666667,2.516611478,3,0
2,95,2,Play,1,1.1876,8,8,-7,0,0,0,3,8.660254038,3,1
2,97,1,Pass,0,0.9958,2,-7,-8,0,0,0,-4.333333333,5.507570547,3,1
2,10,1,Pass,0,0.7563,5,4,-8,0,0,0,0.333333333,7.234178138,3,0
2,95,1,Pass,0,0.5253,-7,8,-3,0,0,0,-0.666666667,7.767453465,3,1
3,94,1,Pass,0,1.563,-6,-9,8,0,0,0,-2.333333333,9.073771726,3,1
3,47,1,Pass,0,5.1967,1,-4,-4,0,0,0,-2.333333333,2.886751346,3,0
3,94,1,Pass,0,1.2819,3,-9,-6,0,0,0,-4,6.244997998,3,1
3,94,2,Play,1,1.6487,8,-7,3,0,0,0,1.333333333,7.637626158,3,1
3,32,2,Play,1,1.1799,6,6,-7,0,0,0,1.666666667,7.505553499,3,0
3,95,1,Pass,0,1.4948,-7,-9,8,0,0,0,-2.666666667,9.291573243,3,1
3,91,1,Pass,0,1.2622,-9,6,-1,0,0,0,-1.333333333,7.505553499,3,1
3,94,2,Play,1,1.6139,9,-9,8,0,0,0,2.666666667,10.11599394,3,1
3,42,1,Pass,0,1.4295,-4,-1,5,0,0,0,0,4.582575695,3,0
3,97,2,Play,1,1.4959,2,9,-7,0,0,0,1.333333333,8.020806277,3,1
3,91,1,Pass,0,0.9807,-8,9,-1,0,0,0,0,8.544003745,3,1
3,42,2,Play,1,1.4142,3,5,-1,0,0,0,2.333333333,3.055050463,3,0
3,94,1,Pass,0,1.3812,-9,3,-7,0,0,0,-4.333333333,6.429100507,3,1
3,94,2,Play,1,1.4303,-9,3,8,0,0,0,0.666666667,8.736894948,3,1
3,47,1,Pass,0,1.3146,-3,-2,-4,0,0,0,-3,1,3,0
3,32,2,Play,1,1.4973,4,2,6,0,0,0,4,2,3,0
3,94,1,Pass,0,3.7643,-7,8,-9,0,0,0,-2.666666667,9.291573243,3,1
3,42,2,Play,1,2.1147,5,-4,3,0,0,0,1.333333333,4.725815626,3,0
3,97,1,Pass,0,1.2972,2,-7,-5,0,0,0,-3.333333333,4.725815626,3,1
3,95,1,Pass,0,1.0651,-3,-9,-7,0,0,0,-6.333333333,3.055050463,3,1
3,10,1,Pass,0,0.8811,-7,-2,-6,0,0,0,-5,2.645751311,3,0
3,32,2,Play,1,1.4631,3,-7,4,2,6,6,2.333333333,4.844240567,6,0
3,42,2,Play,1,0.9813,5,3,5,0,0,0,4.333333333,1.154700538,3,0
3,97,1,Pass,0,1.7614,9,-5,-8,0,0,0,-1.333333333,9.073771726,3,1
3,97,1,Pass,0,1.3295,-7,8,-5,0,0,0,-1.333333333,8.144527815,3,1
3,95,2,Play,1,2.2312,7,8,-9,0,0,0,2,9.539392014,3,1
3,42,2,Play,1,1.3636,3,3,5,0,0,0,3.666666667,1.154700538,3,0
3,97,1,Pass,0,1.4315,2,-7,-8,0,0,0,-4.333333333,5.507570547,3,1
3,91,2,Play,1,1.6144,9,-8,4,0,0,0,1.666666667,8.736894948,3,1
3,42,2,Play,1,1.2972,-1,3,5,0,0,0,2.333333333,3.055050463,3,0
3,91,1,Pass,0,2.3308,9,-9,-1,0,0,0,-0.333333333,9.018499506,3,1
3,10,1,Pass,0,1.1142,4,-8,-2,0,0,0,-2,6,3,0
3,42,2,Play,1,1.7485,5,-1,3,0,0,0,2.333333333,3.055050463,3,0
3,94,1,Pass,0,1.547,-7,9,-9,0,0,0,-2.333333333,9.865765725,3,1
3,42,2,Play,1,1.4465,5,5,-1,0,0,0,3,3.464101615,3,0
3,95,2,Play,1,1.5953,-3,8,8,0,0,0,4.333333333,6.350852961,3,1
3,32,2,Play,1,1.1309,6,2,3,0,0,0,3.666666667,2.081665999,3,0
3,32,2,Play,1,1.1974,3,6,6,0,0,0,5,1.732050808,3,0
3,91,2,Play,1,0.8138,4,9,6,0,0,0,6.333333333,2.516611478,3,1
3,91,1,Pass,0,1.6813,-8,4,-9,0,0,0,-4.333333333,7.234178138,3,1
3,94,2,Play,1,3.7785,3,9,-7,0,0,0,1.666666667,8.082903769,3,1
3,10,2,Play,1,1.0473,5,4,-7,0,0,0,0.666666667,6.658328118,3,0
3,91,1,Pass,0,1.5653,-8,-9,6,0,0,0,-3.666666667,8.386497084,3,1
3,95,2,Play,1,1.5647,8,8,-7,0,0,0,3,8.660254038,3,1
3,42,2,Play,1,1.1154,-4,5,3,0,0,0,1.333333333,4.725815626,3,0
3,91,2,Play,1,1.2306,6,-9,9,0,0,0,2,9.643650761,3,1
3,47,1,Pass,0,1.4985,-4,1,2,0,0,0,-0.333333333,3.214550254,3,0
3,94,1,Pass,0,0.7978,-7,3,-6,0,0,0,-3.333333333,5.507570547,3,1
3,47,1,Pass,0,0.7954,2,-2,-3,0,0,0,-1,2.645751311,3,0
3,47,1,Pass,0,0.8977,-2,-4,2,0,0,0,-1.333333333,3.055050463,3,0
3,10,1,Pass,0,1.0303,-7,-6,4,0,0,0,-3,6.08276253,3,0
3,91,2,Play,1,1.9634,6,-9,9,-8,4,-1,0.166666667,7.467708261,6,1
3,95,1,Pass,0,1.512,-7,8,-3,0,0,0,-0.666666667,7.767453465,3,1
3,32,2,Play,1,1.2976,2,3,4,0,0,0,3,1,3,0
3,10,1,Pass,0,1.4302,4,-8,-7,0,0,0,-3.666666667,6.658328118,3,0
3,97,2,Play,1,1.2481,8,9,-5,0,0,0,4,7.810249676,3,1
3,47,1,Pass,0,4.9481,-2,1,-3,0,0,0,-1.333333333,2.081665999,3,0
3,10,1,Pass,0,1.0983,-2,-8,-7,4,-6,5,-2.333333333,5.680375574,6,0
3,47,1,Pass,0,1.0812,1,-2,-4,0,0,0,-1.666666667,2.516611478,3,0
3,95,1,Pass,0,1.3306,-3,-7,8,0,0,0,-0.666666667,7.767453465,3,1
3,97,1,Pass,0,1.3973,2,-5,9,0,0,0,2,7,3,1
3,42,2,Play,1,1.2996,-4,5,3,0,0,0,1.333333333,4.725815626,3,0
3,91,1,Pass,0,1.2478,-1,-9,-8,0,0,0,-6,4.358898944,3,1
3,94,1,Pass,0,0.7146,-7,-6,-9,0,0,0,-7.333333333,1.527525232,3,1
3,47,1,Pass,0,1.0471,-4,-3,1,0,0,0,-2,2.645751311,3,0
3,91,2,Play,1,3.1475,-8,6,4,0,0,0,0.666666667,7.571877794,3,1
3,97,2,Play,1,1.3313,2,9,-5,-7,8,-8,-0.166666667,7.574078602,6,1
3,97,2,Play,1,3.2306,8,9,-7,0,0,0,3.333333333,8.96288644,3,1
3,42,2,Play,1,1.1307,5,5,-4,0,0,0,2,5.196152423,3,0
3,97,1,Pass,0,1.5815,-8,9,-7,0,0,0,-2,9.539392014,3,1
3,95,1,Pass,0,0.9301,7,-3,-9,0,0,0,-1.666666667,8.082903769,3,1
3,32,2,Play,1,1.764,3,6,-7,0,0,0,0.666666667,6.806859286,3,0
3,32,2,Play,1,0.947,3,6,2,0,0,0,3.666666667,2.081665999,3,0
3,10,1,Pass,0,1.5475,-2,5,-6,0,0,0,-1,5.567764363,3,0
3,91,2,Play,1,1.3127,4,9,-1,0,0,0,4,5,3,1
3,10,1,Pass,0,1.4305,-8,-6,-7,0,0,0,-7,1,3,0
3,97,1,Pass,0,0.9309,9,-7,-5,0,0,0,-1,8.717797887,3,1
3,91,2,Play,1,1.1978,9,6,-8,0,0,0,2.333333333,9.073771726,3,1
3,47,1,Pass,0,8.296,2,-2,-4,0,0,0,-1.333333333,3.055050463,3,0
3,47,1,Pass,0,1.0309,-4,-2,-4,0,0,0,-3.333333333,1.154700538,3,0
3,94,1,Pass,0,1.9799,8,-7,-9,-6,3,9,-0.333333333,7.991662322,6,1
3,10,1,Pass,0,0.9459,-8,-2,-6,0,0,0,-5.333333333,3.055050463,3,0
3,10,1,Pass,0,0.6973,-8,-6,5,0,0,0,-3,7,3,0
3,32,1,Pass,0,1.3812,2,-7,4,0,0,0,-0.333333333,5.859465277,3,0
3,47,1,Pass,0,0.8321,1,-4,-3,0,0,0,-2,2.645751311,3,0
3,97,2,Play,1,1.6824,9,8,-8,0,0,0,3,9.539392014,3,1
3,47,1,Pass,0,1.265,-4,2,-3,0,0,0,-1.666666667,3.214550254,3,0
3,95,2,Play,1,1.5292,7,-3,8,0,0,0,4,6.08276253,3,1
3,47,2,Play,1,2.564,1,2,-2,0,0,0,0.333333333,2.081665999,3,0
3,97,1,Pass,0,2.3816,-8,2,-5,0,0,0,-3.666666667,5.131601439,3,1
3,95,1,Pass,0,0.9631,7,-7,-9,0,0,0,-3,8.717797887,3,1
3,95,1,Pass,0,0.8309,-9,8,-3,0,0,0,-1.333333333,8.621678104,3,1
3,10,1,Pass,0,0.7641,-2,-7,5,0,0,0,-1.333333333,6.027713773,3,0
3,97,2,Play,1,1.3979,9,2,-8,0,0,0,1,8.544003745,3,1
3,94,2,Play,1,1.3477,9,8,-7,0,0,0,3.333333333,8.96288644,3,1
3,47,1,Pass,0,1.3446,-3,-4,2,0,0,0,-1.666666667,3.214550254,3,0
3,10,1,Pass,0,1.0141,-8,5,-2,0,0,0,-1.666666667,6.506407099,3,0
3,32,2,Play,1,1.5961,6,-7,4,0,0,0,1,7,3,0
3,32,2,Play,1,1.3134,4,3,-7,0,0,0,0,6.08276253,3,0
3,91,1,Pass,0,1.5624,-9,-8,9,0,0,0,-2.666666667,10.11599394,3,1
3,97,1,Pass,0,2.1133,2,-5,8,0,0,0,1.666666667,6.506407099,3,1
3,91,2,Play,1,1.6642,-1,9,6,0,0,0,4.666666667,5.131601439,3,1
3,10,2,Play,1,1.3123,5,4,-8,0,0,0,0.333333333,7.234178138,3,0
3,91,2,Play,1,1.3313,4,6,-1,0,0,0,3,3.605551275,3,1
3,42,2,Play,1,1.9319,3,3,-1,0,0,0,1.666666667,2.309401077,3,0
3,94,2,Play,1,1.8633,8,9,-6,0,0,0,3.666666667,8.386497084,3,1
3,10,2,Play,1,1.3152,4,5,-2,0,0,0,2.333333333,3.785938897,3,0
3,95,2,Play,1,2.064,8,7,-9,-3,8,-7,0.666666667,7.916228058,6,1
3,10,2,Play,1,1.298,4,-6,5,0,0,0,1,6.08276253,3,0
3,95,2,Play,1,1.5127,-3,8,7,0,0,0,4,6.08276253,3,1
3,95,1,Pass,0,1.547,-3,-9,8,0,0,0,-1.333333333,8.621678104,3,1
3,94,1,Pass,0,0.9313,8,-6,-7,0,0,0,-1.666666667,8.386497084,3,1
3,42,1,Pass,0,1.0816,-1,-4,3,0,0,0,-0.666666667,3.511884584,3,0
3,10,1,Pass,0,0.681,-8,-2,-7,0,0,0,-5.666666667,3.214550254,3,0
3,10,1,Pass,0,1.0495,4,-6,-8,0,0,0,-3.333333333,6.429100507,3,0
3,42,2,Play,1,1.4801,5,3,3,0,0,0,3.666666667,1.154700538,3,0
3,91,1,Pass,0,1.5462,6,-8,-1,0,0,0,-1,7,3,1
3,95,2,Play,1,1.4306,7,8,-7,0,0,0,2.666666667,8.386497084,3,1
3,47,1,Pass,0,1.1321,2,-4,-4,0,0,0,-2,3.464101615,3,0
3,10,1,Pass,0,0.8976,-2,-6,4,0,0,0,-1.333333333,5.033222957,3,0
3,32,2,Play,1,1.4312,2,4,6,0,0,0,4,2,3,0
3,97,2,Play,1,0.9477,2,8,9,0,0,0,6.333333333,3.785938897,3,1
3,47,1,Pass,0,3.8638,1,-2,-4,0,0,0,-1.666666667,2.516611478,3,0
3,47,1,Pass,0,0.8146,-4,-2,-3,-4,1,2,-1.666666667,2.581988897,6,0
3,97,1,Pass,0,0.7806,-5,-8,-7,0,0,0,-6.666666667,1.527525232,3,1
3,47,1,Pass,0,1.8984,2,1,-3,0,0,0,0,2.645751311,3,0
3,42,2,Play,1,1.5804,-4,3,5,0,0,0,1.333333333,4.725815626,3,0
3,42,1,Pass,0,1.4801,3,-4,-1,0,0,0,-0.666666667,3.511884584,3,0
3,91,1,Pass,0,1.1624,-1,4,-9,0,0,0,-2,6.557438524,3,1
3,42,2,Play,1,1.7303,5,5,3,0,0,0,4.333333333,1.154700538,3,0
3,47,1,Pass,0,1.3972,-4,-3,-4,0,0,0,-3.666666667,0.577350269,3,0
3,97,2,Play,1,2.6973,2,8,-8,0,0,0,0.666666667,8.082903769,3,1
3,47,1,Pass,0,1.3796,-3,-4,-2,0,0,0,-3,1,3,0
3,47,1,Pass,0,1.1313,-4,1,2,0,0,0,-0.333333333,3.214550254,3,0
3,94,1,Pass,0,1.1463,-6,-9,9,0,0,0,-2,9.643650761,3,1
3,32,2,Play,1,1.1957,6,4,-7,0,0,0,1,7,3,0
3,10,1,Pass,0,1.5972,-7,-8,5,0,0,0,-3.333333333,7.234178138,3,0
3,32,2,Play,1,1.3952,4,6,6,0,0,0,5.333333333,1.154700538,3,0
3,95,1,Pass,0,1.0143,-9,-7,8,0,0,0,-2.666666667,9.291573243,3,1
3,32,2,Play,1,1.5315,2,6,6,0,0,0,4.666666667,2.309401077,3,0
3,95,1,Pass,0,1.4149,-3,-7,7,0,0,0,-1,7.211102551,3,1
3,42,1,Pass,0,1.8795,3,3,-4,0,0,0,0.666666667,4.041451884,3,0
3,32,2,Play,1,1.3467,-7,2,6,0,0,0,0.333333333,6.658328118,3,0
3,95,2,Play,1,1.1792,8,8,-9,0,0,0,2.333333333,9.814954576,3,1
3,95,2,Play,1,0.9481,7,8,8,0,0,0,7.666666667,0.577350269,3,1
3,91,2,Play,1,1.6955,9,-9,4,0,0,0,1.333333333,9.291573243,3,1
3,32,2,Play,1,2.9986,6,3,4,0,0,0,4.333333333,1.527525232,3,0
3,94,2,Play,1,0.9148,3,9,8,0,0,0,6.666666667,3.214550254,3,1
3,94,2,Play,1,1.2315,3,-6,8,0,0,0,1.666666667,7.094598885,3,1
3,42,1,Pass,0,1.3474,-1,-4,5,0,0,0,0,4.582575695,3,0
3,42,2,Play,1,1.1985,5,-1,5,3,3,-4,1.833333333,3.600925807,6,0
3,32,2,Play,1,0.9473,-7,3,6,0,0,0,0.666666667,6.806859286,3,0
3,97,1,Pass,0,1.3489,-7,-8,8,0,0,0,-2.333333333,8.96288644,3,1
3,91,1,Pass,0,0.7812,-1,-8,4,0,0,0,-1.666666667,6.027713773,3,1
3,94,1,Pass,0,0.863,-6,9,-7,0,0,0,-1.333333333,8.96288644,3,1
3,95,2,Play,1,1.5806,7,8,-7,0,0,0,2.666666667,8.386497084,3,1
3,94,2,Play,1,1.5141,9,3,-9,0,0,0,1,9.16515139,3,1
3,97,2,Play,1,1.0477,-7,2,8,0,0,0,1,7.549834435,3,1
3,10,1,Pass,0,1.3646,-6,-7,5,0,0,0,-2.666666667,6.658328118,3,0
3,97,1,Pass,0,0.8647,-8,-5,8,0,0,0,-1.666666667,8.504900548,3,1
3,32,2,Play,1,1.3632,6,4,3,0,0,0,4.333333333,1.527525232,3,0
3,42,2,Play,1,0.9974,5,-1,3,0,0,0,2.333333333,3.055050463,3,0
3,91,2,Play,1,0.9154,-9,4,6,0,0,0,0.333333333,8.144527815,3,1
3,95,2,Play,1,0.9118,8,-9,7,0,0,0,2,9.539392014,3,1
3,10,1,Pass,0,2.1628,-2,-7,4,0,0,0,-1.666666667,5.507570547,3,0
3,94,2,Play,1,1.4957,-6,3,9,0,0,0,2,7.549834435,3,1
3,32,2,Play,1,1.2955,2,6,-7,0,0,0,0.333333333,6.658328118,3,0
3,32,2,Play,1,1.9794,2,-7,3,0,0,0,-0.666666667,5.507570547,3,0
4,94,1,Pass,0,1.6297,-6,-9,9,0,0,0,-2,9.643650761,3,1
4,32,1,Pass,0,2.844,4,3,-7,0,0,0,0,6.08276253,3,0
4,47,1,Pass,0,1.0934,2,-4,-4,0,0,0,-2,3.464101615,3,0
4,91,2,Play,1,3.7596,6,-9,9,-8,4,-1,0.166666667,7.467708261,6,1
4,91,1,Pass,0,2.9245,-8,4,-9,0,0,0,-4.333333333,7.234178138,3,1
4,94,2,Play,1,3.1781,9,-9,8,0,0,0,2.666666667,10.11599394,3,1
4,32,1,Pass,0,2.1942,2,-7,3,0,0,0,-0.666666667,5.507570547,3,0
4,32,2,Play,1,2.6944,3,-7,4,2,6,6,2.333333333,4.844240567,6,0
4,32,2,Play,1,2.1247,6,6,-7,0,0,0,1.666666667,7.505553499,3,0
4,91,2,Play,1,3.3941,4,6,-1,0,0,0,3,3.605551275,3,1
4,95,2,Play,1,2.3484,7,8,-7,0,0,0,2.666666667,8.386497084,3,1
4,91,1,Pass,0,1.6099,-8,-9,6,0,0,0,-3.666666667,8.386497084,3,1
4,42,2,Play,1,3.1916,5,-1,3,0,0,0,2.333333333,3.055050463,3,0
4,94,2,Play,1,1.5105,8,-7,3,0,0,0,1.333333333,7.637626158,3,1
4,10,1,Pass,0,1.313,-7,-8,5,0,0,0,-3.333333333,7.234178138,3,0
4,95,1,Pass,0,0.8814,-3,-7,8,0,0,0,-0.666666667,7.767453465,3,1
4,32,1,Pass,0,2.1241,-7,2,6,0,0,0,0.333333333,6.658328118,3,0
4,94,1,Pass,0,1.2576,8,-6,-7,0,0,0,-1.666666667,8.386497084,3,1
4,47,1,Pass,0,1.1473,-3,-4,-2,0,0,0,-3,1,3,0
4,32,2,Play,1,1.9923,6,2,3,0,0,0,3.666666667,2.081665999,3,0
4,47,1,Pass,0,1.7459,-4,-3,-4,0,0,0,-3.666666667,0.577350269,3,0
4,95,1,Pass,0,1.6783,7,-3,8,0,0,0,4,6.08276253,3,1
4,94,2,Play,1,1.5592,3,9,8,0,0,0,6.666666667,3.214550254,3,1
4,10,1,Pass,0,2.8109,-8,-2,-6,0,0,0,-5.333333333,3.055050463,3,0
4,95,1,Pass,0,1.028,-9,-7,8,0,0,0,-2.666666667,9.291573243,3,1
4,97,1,Pass,0,1.5931,2,-7,-5,0,0,0,-3.333333333,4.725815626,3,1
4,32,2,Play,1,1.4782,4,2,6,0,0,0,4,2,3,0
4,95,1,Pass,0,3.66,-3,-9,8,0,0,0,-1.333333333,8.621678104,3,1
4,42,1,Pass,0,1.7092,-1,-4,5,0,0,0,0,4.582575695,3,0
4,32,1,Pass,0,2.1276,3,6,-7,0,0,0,0.666666667,6.806859286,3,0
4,91,2,Play,1,2.5453,-9,4,6,0,0,0,0.333333333,8.144527815,3,1
4,97,2,Play,1,1.7952,-7,2,8,0,0,0,1,7.549834435,3,1
4,95,2,Play,1,2.1772,7,8,-9,0,0,0,2,9.539392014,3,1
4,95,1,Pass,0,2.4261,-7,8,-3,0,0,0,-0.666666667,7.767453465,3,1
4,42,1,Pass,0,4.7447,3,-4,-1,0,0,0,-0.666666667,3.511884584,3,0
4,32,2,Play,1,1.4961,2,4,6,0,0,0,4,2,3,0
4,42,2,Play,1,1.0933,-1,3,5,0,0,0,2.333333333,3.055050463,3,0
4,97,1,Pass,0,1.8585,-7,-8,8,0,0,0,-2.333333333,8.96288644,3,1
4,10,1,Pass,0,1.53,-2,-6,4,0,0,0,-1.333333333,5.033222957,3,0
4,91,1,Pass,0,14.8776,-9,-8,9,0,0,0,-2.666666667,10.11599394,3,1
4,97,1,Pass,0,1.1944,-5,-8,-7,0,0,0,-6.666666667,1.527525232,3,1
4,95,2,Play,1,2.0109,8,8,-9,0,0,0,2.333333333,9.814954576,3,1
4,97,2,Play,1,1.157,2,8,9,0,0,0,6.333333333,3.785938897,3,1
4,91,2,Play,1,0.7292,4,9,6,0,0,0,6.333333333,2.516611478,3,1
4,91,2,Play,1,1.3132,9,6,-8,0,0,0,2.333333333,9.073771726,3,1
4,94,1,Pass,0,2.4779,3,9,-7,0,0,0,1.666666667,8.082903769,3,1
4,10,2,Play,1,3.4106,4,-6,5,0,0,0,1,6.08276253,3,0
4,97,1,Pass,0,52.1886,2,-7,-8,0,0,0,-4.333333333,5.507570547,3,1
4,95,1,Pass,0,1.0947,7,-3,-9,0,0,0,-1.666666667,8.082903769,3,1
4,42,2,Play,1,1.6278,-4,5,3,0,0,0,1.333333333,4.725815626,3,0
4,94,1,Pass,0,37.9411,-7,8,-9,0,0,0,-2.666666667,9.291573243,3,1
4,47,1,Pass,0,1.7279,1,-2,-4,0,0,0,-1.666666667,2.516611478,3,0
4,47,1,Pass,0,2.6275,1,2,-2,0,0,0,0.333333333,2.081665999,3,0
4,97,1,Pass,0,1.5733,-8,2,-5,0,0,0,-3.666666667,5.131601439,3,1
4,91,1,Pass,0,1.4928,-1,4,-9,0,0,0,-2,6.557438524,3,1
4,10,2,Play,1,1.2573,5,4,-7,0,0,0,0.666666667,6.658328118,3,0
4,97,2,Play,1,1.9084,8,9,-5,0,0,0,4,7.810249676,3,1
4,94,1,Pass,0,1.3134,-6,-9,8,0,0,0,-2.333333333,9.073771726,3,1
4,32,1,Pass,0,1.7112,6,-7,4,0,0,0,1,7,3,0
4,42,2,Play,1,1.6472,5,3,3,0,0,0,3.666666667,1.154700538,3,0
4,10,2,Play,1,1.0622,4,5,-2,0,0,0,2.333333333,3.785938897,3,0
4,91,2,Play,1,2.1297,9,-8,4,0,0,0,1.666666667,8.736894948,3,1
4,91,1,Pass,0,1.7774,9,-9,-1,0,0,0,-0.333333333,9.018499506,3,1
4,42,2,Play,1,1.645,3,3,-4,0,0,0,0.666666667,4.041451884,3,0
4,97,1,Pass,0,1.656,9,-5,-8,0,0,0,-1.333333333,9.073771726,3,1
4,95,2,Play,1,2.3084,8,-9,7,0,0,0,2,9.539392014,3,1
4,95,2,Play,1,6.3283,8,8,-7,0,0,0,3,8.660254038,3,1
4,47,1,Pass,0,4.1271,-4,1,2,0,0,0,-0.333333333,3.214550254,3,0
4,42,2,Play,1,3.4608,3,3,-1,0,0,0,1.666666667,2.309401077,3,0
4,91,1,Pass,0,1.9461,-8,9,-1,0,0,0,0,8.544003745,3,1
4,47,1,Pass,0,1.5763,-2,-4,2,0,0,0,-1.333333333,3.055050463,3,0
4,47,1,Pass,0,1.295,-4,-2,-4,0,0,0,-3.333333333,1.154700538,3,0
4,32,2,Play,1,2.2104,6,3,4,0,0,0,4.333333333,1.527525232,3,0
4,32,1,Pass,0,1.9456,2,-7,4,0,0,0,-0.333333333,5.859465277,3,0
4,91,2,Play,1,1.7792,-1,9,6,0,0,0,4.666666667,5.131601439,3,1
4,10,1,Pass,0,1.9598,5,4,-8,0,0,0,0.333333333,7.234178138,3,0
4,10,1,Pass,0,1.7945,-2,5,-6,0,0,0,-1,5.567764363,3,0
4,47,1,Pass,0,7.2589,-4,2,-3,0,0,0,-1.666666667,3.214550254,3,0
4,97,2,Play,1,2.4953,9,8,-8,0,0,0,3,9.539392014,3,1
4,94,2,Play,1,4.1118,8,9,-6,0,0,0,3.666666667,8.386497084,3,1
4,10,1,Pass,0,1.7921,4,-8,-7,0,0,0,-3.666666667,6.658328118,3,0
4,97,2,Play,1,5.6769,2,9,-7,0,0,0,1.333333333,8.020806277,3,1
4,42,2,Play,1,1.0152,-4,5,3,0,0,0,1.333333333,4.725815626,3,0
4,94,1,Pass,0,1.8572,-6,9,-7,0,0,0,-1.333333333,8.96288644,3,1
4,42,1,Pass,0,2.2321,-4,3,5,0,0,0,1.333333333,4.725815626,3,0
4,42,2,Play,1,1.5136,5,-1,5,3,3,-4,1.833333333,3.600925807,6,0
4,10,1,Pass,0,2.1144,-6,-7,5,0,0,0,-2.666666667,6.658328118,3,0
4,10,1,Pass,0,1.4461,-2,-8,-7,4,-6,5,-2.333333333,5.680375574,6,0
4,94,2,Play,1,1.6445,-6,3,9,0,0,0,2,7.549834435,3,1
4,97,2,Play,1,2.5642,2,-5,8,0,0,0,1.666666667,6.506407099,3,1
4,32,2,Play,1,0.9781,6,4,-7,0,0,0,1,7,3,0
4,91,2,Play,1,1.6435,9,-9,4,0,0,0,1.333333333,9.291573243,3,1
4,95,1,Pass,0,1.6806,-3,-9,-7,0,0,0,-6.333333333,3.055050463,3,1
4,91,1,Pass,0,1.5416,-1,-9,-8,0,0,0,-6,4.358898944,3,1
4,47,1,Pass,0,1.1947,-2,1,-3,0,0,0,-1.333333333,2.081665999,3,0
4,10,1,Pass,0,1.3613,-8,-2,-7,0,0,0,-5.666666667,3.214550254,3,0
4,32,2,Play,1,1.3609,2,6,6,0,0,0,4.666666667,2.309401077,3,0
4,95,2,Play,1,46.4221,-3,8,8,0,0,0,4.333333333,6.350852961,3,1
4,42,2,Play,1,0.9977,5,3,5,0,0,0,4.333333333,1.154700538,3,0
4,97,1,Pass,0,3.3918,-7,8,-5,0,0,0,-1.333333333,8.144527815,3,1
4,32,2,Play,1,3.5772,6,4,3,0,0,0,4.333333333,1.527525232,3,0
4,94,2,Play,1,8.6765,9,3,-9,0,0,0,1,9.16515139,3,1
4,47,1,Pass,0,1.38,-3,-2,-4,0,0,0,-3,1,3,0
4,95,1,Pass,0,1.1747,-7,-9,8,0,0,0,-2.666666667,9.291573243,3,1
4,95,1,Pass,0,2.8946,8,7,-9,-3,8,-7,0.666666667,7.916228058,6,1
4,42,1,Pass,0,1.5251,-1,-4,3,0,0,0,-0.666666667,3.511884584,3,0
4,32,2,Play,1,2.0623,3,6,6,0,0,0,5,1.732050808,3,0
4,47,1,Pass,0,2.363,1,-4,-3,0,0,0,-2,2.645751311,3,0
4,94,2,Play,1,1.729,-9,3,8,0,0,0,0.666666667,8.736894948,3,1
4,47,1,Pass,0,1.7819,-4,1,2,0,0,0,-0.333333333,3.214550254,3,0
4,97,2,Play,1,2.144,2,9,-5,-7,8,-8,-0.166666667,7.574078602,6,1
4,10,1,Pass,0,1.71,-2,-7,5,0,0,0,-1.333333333,6.027713773,3,0
4,94,1,Pass,0,0.6624,-7,-6,-9,0,0,0,-7.333333333,1.527525232,3,1
4,10,1,Pass,0,0.5595,-7,-6,4,0,0,0,-3,6.08276253,3,0
4,97,2,Play,1,1.4613,2,8,-8,0,0,0,0.666666667,8.082903769,3,1
4,95,1,Pass,0,2.0144,-3,-7,7,0,0,0,-1,7.211102551,3,1
4,42,1,Pass,0,1.3603,-4,-1,5,0,0,0,0,4.582575695,3,0
4,91,1,Pass,0,6.7445,6,-8,-1,0,0,0,-1,7,3,1
4,10,1,Pass,0,1.6761,4,-6,-8,0,0,0,-3.333333333,6.429100507,3,0
4,95,2,Play,1,33.4707,7,8,8,0,0,0,7.666666667,0.577350269,3,1
4,47,1,Pass,0,1.2948,1,-2,-4,0,0,0,-1.666666667,2.516611478,3,0
4,95,1,Pass,0,1.5946,-9,8,-3,0,0,0,-1.333333333,8.621678104,3,1
4,91,2,Play,1,1.6266,4,9,-1,0,0,0,4,5,3,1
4,47,1,Pass,0,1.3993,-3,-4,2,0,0,0,-1.666666667,3.214550254,3,0
4,91,2,Play,1,1.7279,-8,6,4,0,0,0,0.666666667,7.571877794,3,1
4,10,1,Pass,0,1.3574,-2,-7,4,0,0,0,-1.666666667,5.507570547,3,0
4,47,1,Pass,0,1.5295,-4,-3,1,0,0,0,-2,2.645751311,3,0
4,91,1,Pass,0,3.1276,-9,6,-1,0,0,0,-1.333333333,7.505553499,3,1
4,97,1,Pass,0,1.7084,-8,-5,8,0,0,0,-1.666666667,8.504900548,3,1
4,42,2,Play,1,1.7593,5,-1,3,0,0,0,2.333333333,3.055050463,3,0
4,42,2,Play,1,62.5205,3,3,5,0,0,0,3.666666667,1.154700538,3,0
4,94,1,Pass,0,2.2977,3,-9,-6,0,0,0,-4,6.244997998,3,1
4,94,1,Pass,0,3.9111,-7,3,-6,0,0,0,-3.333333333,5.507570547,3,1
4,94,2,Play,1,1.3967,3,-6,8,0,0,0,1.666666667,7.094598885,3,1
4,97,2,Play,1,0.946,8,9,-7,0,0,0,3.333333333,8.96288644,3,1
4,47,1,Pass,0,1.614,1,-4,-4,0,0,0,-2.333333333,2.886751346,3,0
4,97,2,Play,1,2.8093,2,-5,9,0,0,0,2,7,3,1
4,97,1,Pass,0,1.5784,9,-7,-5,0,0,0,-1,8.717797887,3,1
4,47,1,Pass,0,2.1592,-4,-2,-3,-4,1,2,-1.666666667,2.581988897,6,0
4,10,1,Pass,0,1.3577,-8,5,-2,0,0,0,-1.666666667,6.506407099,3,0
4,95,1,Pass,0,0.9771,7,-7,-9,0,0,0,-3,8.717797887,3,1
4,32,2,Play,1,1.5608,3,6,2,0,0,0,3.666666667,2.081665999,3,0
4,47,1,Pass,0,2.3448,2,1,-3,0,0,0,0,2.645751311,3,0
4,10,1,Pass,0,1.6455,4,-8,-2,0,0,0,-2,6,3,0
4,94,1,Pass,0,1.5087,-9,3,-7,0,0,0,-4.333333333,6.429100507,3,1
4,42,2,Play,1,2.3595,5,5,3,0,0,0,4.333333333,1.154700538,3,0
4,42,2,Play,1,1.8768,5,5,-1,0,0,0,3,3.464101615,3,0
4,95,2,Play,1,1.126,-3,8,7,0,0,0,4,6.08276253,3,1
4,95,2,Play,1,1.1461,7,8,-7,0,0,0,2.666666667,8.386497084,3,1
4,91,2,Play,1,1.161,6,-9,9,0,0,0,2,9.643650761,3,1
4,42,2,Play,1,1.247,5,5,-4,0,0,0,2,5.196152423,3,0
4,97,2,Play,1,1.2766,9,2,-8,0,0,0,1,8.544003745,3,1
4,32,2,Play,1,1.708,-7,3,6,0,0,0,0.666666667,6.806859286,3,0
4,91,1,Pass,0,1.6609,-1,-8,4,0,0,0,-1.666666667,6.027713773,3,1
4,10,1,Pass,0,3.3614,-7,-2,-6,0,0,0,-5,2.645751311,3,0
4,94,2,Play,1,2.3769,8,-7,-9,-6,3,9,-0.333333333,7.991662322,6,1
4,32,2,Play,1,1.478,4,6,6,0,0,0,5.333333333,1.154700538,3,0
4,94,1,Pass,0,1.9787,-7,9,-9,0,0,0,-2.333333333,9.865765725,3,1
4,42,1,Pass,0,1.6913,5,-4,3,0,0,0,1.333333333,4.725815626,3,0
4,97,1,Pass,0,2.1126,-8,9,-7,0,0,0,-2,9.539392014,3,1
4,32,2,Play,1,1.6737,2,6,-7,0,0,0,0.333333333,6.658328118,3,0
4,10,1,Pass,0,1.5447,-8,-6,5,0,0,0,-3,7,3,0
4,94,2,Play,1,2.4098,9,8,-7,0,0,0,3.333333333,8.96288644,3,1
4,32,2,Play,1,0.8469,2,3,4,0,0,0,3,1,3,0
4,47,1,Pass,0,1.3969,2,-2,-3,0,0,0,-1,2.645751311,3,0
4,47,1,Pass,0,1.0091,2,-2,-4,0,0,0,-1.333333333,3.055050463,3,0
4,42,2,Play,1,1.6596,3,5,-1,0,0,0,2.333333333,3.055050463,3,0
4,10,1,Pass,0,2.5612,-8,-6,-7,0,0,0,-7,1,3,0
5,10,1,Pass,0,1.6226,-7,-6,4,0,0,0,-3,6.08276253,3,0
5,95,1,Pass,0,1.7079,-9,8,-3,0,0,0,-1.333333333,8.621678104,3,1
5,91,2,Play,1,1.3051,-8,6,4,0,0,0,0.666666667,7.571877794,3,1
5,97,2,Play,1,1.1876,9,8,-8,0,0,0,3,9.539392014,3,1
5,42,2,Play,1,1.3999,-4,5,3,0,0,0,1.333333333,4.725815626,3,0
5,47,1,Pass,0,1.3733,-3,-4,-2,0,0,0,-3,1,3,0
5,97,2,Play,1,1.4167,8,9,-5,0,0,0,4,7.810249676,3,1
5,10,1,Pass,0,1.1941,-7,-2,-6,0,0,0,-5,2.645751311,3,0
5,32,2,Play,1,1.1154,3,6,2,0,0,0,3.666666667,2.081665999,3,0
5,32,2,Play,1,1.4349,3,6,-7,0,0,0,0.666666667,6.806859286,3,0
5,95,2,Play,1,1.3722,7,8,-9,0,0,0,2,9.539392014,3,1
5,91,2,Play,1,1.4163,4,9,-1,0,0,0,4,5,3,1
5,95,2,Play,1,1.1093,8,8,-9,0,0,0,2.333333333,9.814954576,3,1
5,47,1,Pass,0,1.1657,-4,-2,-4,0,0,0,-3.333333333,1.154700538,3,0
5,97,2,Play,1,1.8206,2,-5,8,0,0,0,1.666666667,6.506407099,3,1
5,42,2,Play,1,1.9017,5,-1,5,3,3,-4,1.833333333,3.600925807,6,0
5,32,2,Play,1,1.1287,3,-7,4,2,6,6,2.333333333,4.844240567,6,0
5,91,1,Pass,0,1.1496,-8,-9,6,0,0,0,-3.666666667,8.386497084,3,1
5,47,1,Pass,0,1.3503,-3,-4,2,0,0,0,-1.666666667,3.214550254,3,0
5,97,1,Pass,0,1.1288,9,-7,-5,0,0,0,-1,8.717797887,3,1
5,94,1,Pass,0,0.8533,-7,-6,-9,0,0,0,-7.333333333,1.527525232,3,1
5,97,2,Play,1,4.62,2,9,-5,-7,8,-8,-0.166666667,7.574078602,6,1
5,95,1,Pass,0,1.8281,-7,-9,8,0,0,0,-2.666666667,9.291573243,3,1
5,10,1,Pass,0,1.1844,4,-6,-8,0,0,0,-3.333333333,6.429100507,3,0
5,32,2,Play,1,1.2415,6,-7,4,0,0,0,1,7,3,0
5,94,2,Play,1,1.0847,8,9,-6,0,0,0,3.666666667,8.386497084,3,1
5,42,2,Play,1,1.1393,5,5,3,0,0,0,4.333333333,1.154700538,3,0
5,42,2,Play,1,0.9616,-1,3,5,0,0,0,2.333333333,3.055050463,3,0
5,91,2,Play,1,1.0075,-1,9,6,0,0,0,4.666666667,5.131601439,3,1
5,91,2,Play,1,1.458,4,6,-1,0,0,0,3,3.605551275,3,1
5,32,2,Play,1,0.832,3,6,6,0,0,0,5,1.732050808,3,0
5,32,2,Play,1,0.8917,2,3,4,0,0,0,3,1,3,0
5,91,2,Play,1,1.3241,9,-8,4,0,0,0,1.666666667,8.736894948,3,1
5,94,1,Pass,0,1.9941,-6,-9,8,0,0,0,-2.333333333,9.073771726,3,1
5,47,1,Pass,0,0.7604,-4,-3,1,0,0,0,-2,2.645751311,3,0
5,47,1,Pass,0,1.7756,-4,1,2,0,0,0,-0.333333333,3.214550254,3,0
5,32,2,Play,1,0.9784,2,6,6,0,0,0,4.666666667,2.309401077,3,0
5,94,2,Play,1,0.9732,-6,3,9,0,0,0,2,7.549834435,3,1
5,32,2,Play,1,0.6427,2,4,6,0,0,0,4,2,3,0
5,10,1,Pass,0,0.8026,-8,-2,-6,0,0,0,-5.333333333,3.055050463,3,0
5,47,1,Pass,0,2.5361,1,2,-2,0,0,0,0.333333333,2.081665999,3,0
5,32,2,Play,1,0.9772,6,4,-7,0,0,0,1,7,3,0
5,32,2,Play,1,0.6488,6,2,3,0,0,0,3.666666667,2.081665999,3,0
5,94,2,Play,1,1.0987,3,9,8,0,0,0,6.666666667,3.214550254,3,1
5,97,1,Pass,0,1.0083,-7,8,-5,0,0,0,-1.333333333,8.144527815,3,1
5,95,1,Pass,0,0.8478,7,-7,-9,0,0,0,-3,8.717797887,3,1
5,94,2,Play,1,0.9526,9,8,-7,0,0,0,3.333333333,8.96288644,3,1
5,97,1,Pass,0,1.3975,9,-5,-8,0,0,0,-1.333333333,9.073771726,3,1
5,94,1,Pass,0,0.8428,-6,9,-7,0,0,0,-1.333333333,8.96288644,3,1
5,10,1,Pass,0,0.7112,4,-8,-7,0,0,0,-3.666666667,6.658328118,3,0
5,95,1,Pass,0,0.8425,-3,-7,8,0,0,0,-0.666666667,7.767453465,3,1
5,91,1,Pass,0,0.7362,-8,9,-1,0,0,0,0,8.544003745,3,1
5,10,1,Pass,0,0.69,-2,-7,5,0,0,0,-1.333333333,6.027713773,3,0
5,32,2,Play,1,1.2551,-7,2,6,0,0,0,0.333333333,6.658328118,3,0
5,47,1,Pass,0,0.7957,2,-2,-4,0,0,0,-1.333333333,3.055050463,3,0
5,47,1,Pass,0,1.0286,-4,2,-3,0,0,0,-1.666666667,3.214550254,3,0
5,42,1,Pass,0,0.7955,-1,-4,5,0,0,0,0,4.582575695,3,0
5,10,2,Play,1,1.2719,4,5,-2,0,0,0,2.333333333,3.785938897,3,0
5,32,2,Play,1,0.8726,4,6,6,0,0,0,5.333333333,1.154700538,3,0
5,10,1,Pass,0,1.1248,-2,-7,4,0,0,0,-1.666666667,5.507570547,3,0
5,91,1,Pass,0,1.0452,9,-9,-1,0,0,0,-0.333333333,9.018499506,3,1
5,10,1,Pass,0,0.7877,-8,-6,-7,0,0,0,-7,1,3,0
5,10,1,Pass,0,1.2706,-8,-2,-7,0,0,0,-5.666666667,3.214550254,3,0
5,94,2,Play,1,1.4161,9,3,-9,0,0,0,1,9.16515139,3,1
5,32,2,Play,1,0.9271,6,6,-7,0,0,0,1.666666667,7.505553499,3,0
5,32,2,Play,1,2.5794,2,6,-7,0,0,0,0.333333333,6.658328118,3,0
5,97,2,Play,1,1.6389,-7,2,8,0,0,0,1,7.549834435,3,1
5,95,2,Play,1,1.1579,-3,8,8,0,0,0,4.333333333,6.350852961,3,1
5,91,1,Pass,0,1.2355,-8,4,-9,0,0,0,-4.333333333,7.234178138,3,1
5,97,1,Pass,0,1.8172,-8,-5,8,0,0,0,-1.666666667,8.504900548,3,1
5,94,1,Pass,0,0.8932,-9,3,-7,0,0,0,-4.333333333,6.429100507,3,1
5,94,1,Pass,0,0.8159,3,-9,-6,0,0,0,-4,6.244997998,3,1
5,97,1,Pass,0,0.795,2,-7,-8,0,0,0,-4.333333333,5.507570547,3,1
5,91,1,Pass,0,0.7539,-1,-9,-8,0,0,0,-6,4.358898944,3,1
5,95,1,Pass,0,0.9633,-3,-9,-7,0,0,0,-6.333333333,3.055050463,3,1
5,94,2,Play,1,1.6263,3,-6,8,0,0,0,1.666666667,7.094598885,3,1
5,91,2,Play,1,1.3744,-9,4,6,0,0,0,0.333333333,8.144527815,3,1
5,97,2,Play,1,0.9692,2,8,9,0,0,0,6.333333333,3.785938897,3,1
5,95,2,Play,1,1.2994,7,8,-7,0,0,0,2.666666667,8.386497084,3,1
5,32,2,Play,1,0.955,6,4,3,0,0,0,4.333333333,1.527525232,3,0
5,47,1,Pass,0,1.0385,2,-4,-4,0,0,0,-2,3.464101615,3,0
5,42,2,Play,1,1.3723,5,-1,3,0,0,0,2.333333333,3.055050463,3,0
5,95,1,Pass,0,1.679,7,-3,-9,0,0,0,-1.666666667,8.082903769,3,1
5,10,2,Play,1,1.6019,5,4,-7,0,0,0,0.666666667,6.658328118,3,0
5,91,2,Play,1,1.5037,4,9,6,0,0,0,6.333333333,2.516611478,3,1
5,42,2,Play,1,1.1706,-4,5,3,0,0,0,1.333333333,4.725815626,3,0
5,47,1,Pass,0,0.9754,-2,-4,2,0,0,0,-1.333333333,3.055050463,3,0
5,91,2,Play,1,1.1593,9,6,-8,0,0,0,2.333333333,9.073771726,3,1
5,47,1,Pass,0,0.8713,1,-2,-4,0,0,0,-1.666666667,2.516611478,3,0
5,91,2,Play,1,1.161,9,-9,4,0,0,0,1.333333333,9.291573243,3,1
5,94,2,Play,1,1.1697,8,-7,3,0,0,0,1.333333333,7.637626158,3,1
5,42,2,Play,1,0.8956,5,5,-1,0,0,0,3,3.464101615,3,0
5,97,2,Play,1,0.9273,9,2,-8,0,0,0,1,8.544003745,3,1
5,32,2,Play,1,0.8599,4,2,6,0,0,0,4,2,3,0
5,47,1,Pass,0,1.02,2,-2,-3,0,0,0,-1,2.645751311,3,0
5,95,2,Play,1,1.046,7,8,-7,0,0,0,2.666666667,8.386497084,3,1
5,97,1,Pass,0,1.0199,2,-7,-5,0,0,0,-3.333333333,4.725815626,3,1
5,42,2,Play,1,1.6268,3,3,5,0,0,0,3.666666667,1.154700538,3,0
5,47,1,Pass,0,0.9943,1,-4,-4,0,0,0,-2.333333333,2.886751346,3,0
5,97,2,Play,1,0.9873,2,8,-8,0,0,0,0.666666667,8.082903769,3,1
5,97,2,Play,1,0.8122,8,9,-7,0,0,0,3.333333333,8.96288644,3,1
5,95,2,Play,1,0.7098,7,8,8,0,0,0,7.666666667,0.577350269,3,1
5,94,2,Play,1,1.4725,-9,3,8,0,0,0,0.666666667,8.736894948,3,1
5,94,1,Pass,0,1.0801,8,-6,-7,0,0,0,-1.666666667,8.386497084,3,1
5,42,2,Play,1,1.2202,3,5,-1,0,0,0,2.333333333,3.055050463,3,0
5,10,1,Pass,0,1.3086,-2,5,-6,0,0,0,-1,5.567764363,3,0
5,32,2,Play,1,0.9366,6,3,4,0,0,0,4.333333333,1.527525232,3,0
5,10,1,Pass,0,2.5345,-8,-6,5,0,0,0,-3,7,3,0
5,91,1,Pass,0,0.9514,-9,6,-1,0,0,0,-1.333333333,7.505553499,3,1
5,42,2,Play,1,0.979,3,3,-1,0,0,0,1.666666667,2.309401077,3,0
5,10,2,Play,1,0.9343,4,-6,5,0,0,0,1,6.08276253,3,0
5,97,1,Pass,0,0.914,-8,2,-5,0,0,0,-3.666666667,5.131601439,3,1
5,32,1,Pass,0,1.8628,2,-7,3,0,0,0,-0.666666667,5.507570547,3,0
5,97,1,Pass,0,1.154,-7,-8,8,0,0,0,-2.333333333,8.96288644,3,1
5,10,1,Pass,0,0.8655,-2,-6,4,0,0,0,-1.333333333,5.033222957,3,0
5,10,1,Pass,0,0.7381,-8,5,-2,0,0,0,-1.666666667,6.506407099,3,0
5,10,1,Pass,0,0.9758,4,-8,-2,0,0,0,-2,6,3,0
5,32,2,Play,1,1.2267,-7,3,6,0,0,0,0.666666667,6.806859286,3,0
5,95,2,Play,1,7.1718,8,7,-9,-3,8,-7,0.666666667,7.916228058,6,1
5,91,1,Pass,0,1.3829,-1,-8,4,0,0,0,-1.666666667,6.027713773,3,1
5,42,1,Pass,0,1.5826,-4,-1,5,0,0,0,0,4.582575695,3,0
5,47,2,Play,1,2.5892,2,1,-3,0,0,0,0,2.645751311,3,0
5,32,2,Play,1,1.104,4,3,-7,0,0,0,0,6.08276253,3,0
5,10,1,Pass,0,1.3234,-7,-8,5,0,0,0,-3.333333333,7.234178138,3,0
5,47,1,Pass,0,0.8017,1,-2,-4,0,0,0,-1.666666667,2.516611478,3,0
5,47,1,Pass,0,1.2576,-4,1,2,0,0,0,-0.333333333,3.214550254,3,0
5,95,1,Pass,0,1.6684,-9,-7,8,0,0,0,-2.666666667,9.291573243,3,1
5,97,2,Play,1,1.1841,2,9,-7,0,0,0,1.333333333,8.020806277,3,1
5,95,1,Pass,0,2.4019,-3,-9,8,0,0,0,-1.333333333,8.621678104,3,1
5,42,2,Play,1,2.0266,5,-4,3,0,0,0,1.333333333,4.725815626,3,0
5,47,1,Pass,0,1.4073,1,-4,-3,0,0,0,-2,2.645751311,3,0
5,91,2,Play,1,2.4671,6,-9,9,-8,4,-1,0.166666667,7.467708261,6,1
5,10,1,Pass,0,1.2967,-2,-8,-7,4,-6,5,-2.333333333,5.680375574,6,0
5,95,2,Play,1,1.0577,8,8,-7,0,0,0,3,8.660254038,3,1
5,94,1,Pass,0,0.9925,-6,-9,9,0,0,0,-2,9.643650761,3,1
5,91,2,Play,1,1.1989,6,-9,9,0,0,0,2,9.643650761,3,1
5,42,2,Play,1,0.9011,5,3,3,0,0,0,3.666666667,1.154700538,3,0
5,91,1,Pass,0,0.8386,6,-8,-1,0,0,0,-1,7,3,1
5,94,2,Play,1,1.1002,9,-9,8,0,0,0,2.666666667,10.11599394,3,1
5,97,1,Pass,0,0.8946,-5,-8,-7,0,0,0,-6.666666667,1.527525232,3,1
5,95,1,Pass,0,0.8937,-7,8,-3,0,0,0,-0.666666667,7.767453465,3,1
5,10,2,Play,1,1.2956,5,4,-8,0,0,0,0.333333333,7.234178138,3,0
5,47,1,Pass,0,0.8889,-4,-3,-4,0,0,0,-3.666666667,0.577350269,3,0
5,42,1,Pass,0,0.7948,3,-4,-1,0,0,0,-0.666666667,3.511884584,3,0
5,47,1,Pass,0,0.7115,-2,1,-3,0,0,0,-1.333333333,2.081665999,3,0
5,97,1,Pass,0,0.7047,-8,9,-7,0,0,0,-2,9.539392014,3,1
5,10,1,Pass,0,0.6984,-6,-7,5,0,0,0,-2.666666667,6.658328118,3,0
5,94,1,Pass,0,0.6002,-7,8,-9,0,0,0,-2.666666667,9.291573243,3,1
5,91,1,Pass,0,0.7081,-1,4,-9,0,0,0,-2,6.557438524,3,1
5,95,2,Play,1,1.0941,-3,8,7,0,0,0,4,6.08276253,3,1
5,95,1,Pass,0,1.0215,-3,-7,7,0,0,0,-1,7.211102551,3,1
5,42,2,Play,1,0.8967,5,3,5,0,0,0,4.333333333,1.154700538,3,0
5,42,2,Play,1,1.3163,5,5,-4,0,0,0,2,5.196152423,3,0
5,94,2,Play,1,3.016,8,-7,-9,-6,3,9,-0.333333333,7.991662322,6,1
5,47,1,Pass,0,1.0246,-4,-2,-3,-4,1,2,-1.666666667,2.581988897,6,0
5,47,1,Pass,0,0.7702,-3,-2,-4,0,0,0,-3,1,3,0
5,94,2,Play,1,1.4247,3,9,-7,0,0,0,1.666666667,8.082903769,3,1
5,32,2,Play,1,1.0005,2,-7,4,0,0,0,-0.333333333,5.859465277,3,0
5,42,2,Play,1,0.8614,3,3,-4,0,0,0,0.666666667,4.041451884,3,0
5,95,2,Play,1,0.6933,8,-9,7,0,0,0,2,9.539392014,3,1
5,97,2,Play,1,0.774,2,-5,9,0,0,0,2,7,3,1
5,94,1,Pass,0,1.1492,-7,9,-9,0,0,0,-2.333333333,9.865765725,3,1
5,95,2,Play,1,1.6646,7,-3,8,0,0,0,4,6.08276253,3,1
5,94,1,Pass,0,0.9806,-7,3,-6,0,0,0,-3.333333333,5.507570547,3,1
5,91,1,Pass,0,1.3348,-9,-8,9,0,0,0,-2.666666667,10.11599394,3,1
5,42,2,Play,1,1.3225,-4,3,5,0,0,0,1.333333333,4.725815626,3,0
5,42,1,Pass,0,1.065,-1,-4,3,0,0,0,-0.666666667,3.511884584,3,0
5,42,2,Play,1,1.647,5,-1,3,0,0,0,2.333333333,3.055050463,3,0
6,95,2,Play,1,3.6729,8,7,-9,-3,8,-7,0.666666667,7.916228058,6,1
6,97,2,Play,1,2.264,9,8,-8,0,0,0,3,9.539392014,3,1
6,32,2,Play,1,1.555,2,6,-7,0,0,0,0.333333333,6.658328118,3,0
6,47,1,Pass,0,1.814,-4,-3,-4,0,0,0,-3.666666667,0.577350269,3,0
6,10,1,Pass,0,0.938,-2,-7,4,0,0,0,-1.666666667,5.507570547,3,0
6,47,1,Pass,0,1.8258,-3,-4,-2,0,0,0,-3,1,3,0
6,47,1,Pass,0,1.1482,1,-4,-4,0,0,0,-2.333333333,2.886751346,3,0
6,95,2,Play,1,2.3432,8,-9,7,0,0,0,2,9.539392014,3,1
6,97,1,Pass,0,1.5758,2,-7,-5,0,0,0,-3.333333333,4.725815626,3,1
6,10,1,Pass,0,1.7425,-7,-6,4,0,0,0,-3,6.08276253,3,0
6,32,2,Play,1,1.4121,3,6,-7,0,0,0,0.666666667,6.806859286,3,0
6,95,2,Play,1,0.8059,7,8,8,0,0,0,7.666666667,0.577350269,3,1
6,95,1,Pass,0,1.4656,7,-7,-9,0,0,0,-3,8.717797887,3,1
6,91,2,Play,1,1.8094,-1,9,6,0,0,0,4.666666667,5.131601439,3,1
6,95,1,Pass,0,1.6818,-9,8,-3,0,0,0,-1.333333333,8.621678104,3,1
6,94,2,Play,1,3.7722,8,-7,-9,-6,3,9,-0.333333333,7.991662322,6,1
6,94,2,Play,1,1.1716,-6,3,9,0,0,0,2,7.549834435,3,1
6,10,2,Play,1,1.1382,5,4,-8,0,0,0,0.333333333,7.234178138,3,0
6,32,2,Play,1,0.6883,3,6,2,0,0,0,3.666666667,2.081665999,3,0
6,47,1,Pass,0,1.3049,2,-4,-4,0,0,0,-2,3.464101615,3,0
6,10,1,Pass,0,1.1961,-2,5,-6,0,0,0,-1,5.567764363,3,0
6,47,2,Play,1,3.2158,2,1,-3,0,0,0,0,2.645751311,3,0
6,10,1,Pass,0,1.5888,-8,5,-2,0,0,0,-1.666666667,6.506407099,3,0
6,94,1,Pass,0,0.7578,-6,9,-7,0,0,0,-1.333333333,8.96288644,3,1
6,10,1,Pass,0,0.7653,-8,-6,5,0,0,0,-3,7,3,0
6,47,1,Pass,0,0.9697,2,-2,-4,0,0,0,-1.333333333,3.055050463,3,0
6,94,1,Pass,0,0.8827,-7,-6,-9,0,0,0,-7.333333333,1.527525232,3,1
6,94,1,Pass,0,0.8211,-7,3,-6,0,0,0,-3.333333333,5.507570547,3,1
6,42,2,Play,1,4.1567,5,-4,3,0,0,0,1.333333333,4.725815626,3,0
6,95,2,Play,1,1.1816,-3,8,8,0,0,0,4.333333333,6.350852961,3,1
6,47,1,Pass,0,1.3301,-3,-4,2,0,0,0,-1.666666667,3.214550254,3,0
6,47,1,Pass,0,0.7143,-2,1,-3,0,0,0,-1.333333333,2.081665999,3,0
6,42,2,Play,1,1.6938,-4,5,3,0,0,0,1.333333333,4.725815626,3,0
6,42,2,Play,1,0.7559,5,5,3,0,0,0,4.333333333,1.154700538,3,0
6,91,1,Pass,0,1.4317,-8,9,-1,0,0,0,0,8.544003745,3,1
6,42,1,Pass,0,1.1376,3,-4,-1,0,0,0,-0.666666667,3.511884584,3,0
6,32,2,Play,1,1.8546,-7,3,6,0,0,0,0.666666667,6.806859286,3,0
6,91,2,Play,1,1.4259,6,-9,9,0,0,0,2,9.643650761,3,1
6,91,2,Play,1,2.2551,4,9,-1,0,0,0,4,5,3,1
6,42,2,Play,1,1.0718,5,-1,3,0,0,0,2.333333333,3.055050463,3,0
6,95,2,Play,1,0.7637,7,8,-7,0,0,0,2.666666667,8.386497084,3,1
6,42,2,Play,1,0.6051,-4,5,3,0,0,0,1.333333333,4.725815626,3,0
6,91,1,Pass,0,1.3646,-1,-9,-8,0,0,0,-6,4.358898944,3,1
6,47,1,Pass,0,0.6716,-2,-4,2,0,0,0,-1.333333333,3.055050463,3,0
6,91,1,Pass,0,3.991,-9,4,6,0,0,0,0.333333333,8.144527815,3,1
6,94,2,Play,1,1.2561,3,9,8,0,0,0,6.666666667,3.214550254,3,1
6,95,2,Play,1,1.8931,8,8,-7,0,0,0,3,8.660254038,3,1
6,97,2,Play,1,1.4886,2,-5,8,0,0,0,1.666666667,6.506407099,3,1
6,97,1,Pass,0,1.4388,-8,-5,8,0,0,0,-1.666666667,8.504900548,3,1
6,94,2,Play,1,1.605,9,3,-9,0,0,0,1,9.16515139,3,1
6,97,2,Play,1,0.7145,2,8,-8,0,0,0,0.666666667,8.082903769,3,1
6,10,2,Play,1,4.2051,5,4,-7,0,0,0,0.666666667,6.658328118,3,0
6,47,2,Play,1,1.4715,-4,1,2,0,0,0,-0.333333333,3.214550254,3,0
6,97,1,Pass,0,1.8262,-7,8,-5,0,0,0,-1.333333333,8.144527815,3,1
6,97,2,Play,1,2.0579,2,9,-5,-7,8,-8,-0.166666667,7.574078602,6,1
6,32,2,Play,1,0.8544,2,-7,3,0,0,0,-0.666666667,5.507570547,3,0
6,91,2,Play,1,1.0222,9,-9,4,0,0,0,1.333333333,9.291573243,3,1
6,42,2,Play,1,0.903,-1,3,5,0,0,0,2.333333333,3.055050463,3,0
6,97,2,Play,1,0.8308,8,9,-7,0,0,0,3.333333333,8.96288644,3,1
6,94,1,Pass,0,2.6418,3,-9,-6,0,0,0,-4,6.244997998,3,1
6,97,2,Play,1,1.7799,2,8,9,0,0,0,6.333333333,3.785938897,3,1
6,42,2,Play,1,2.0893,5,3,3,0,0,0,3.666666667,1.154700538,3,0
6,91,1,Pass,0,1.7969,-8,4,-9,0,0,0,-4.333333333,7.234178138,3,1
6,10,2,Play,1,2.3647,4,-6,5,0,0,0,1,6.08276253,3,0
6,97,1,Pass,0,1.341,-8,9,-7,0,0,0,-2,9.539392014,3,1
6,97,1,Pass,0,1.5211,-5,-8,-7,0,0,0,-6.666666667,1.527525232,3,1
6,94,2,Play,1,1.5391,3,-6,8,0,0,0,1.666666667,7.094598885,3,1
6,94,2,Play,1,1.4434,3,9,-7,0,0,0,1.666666667,8.082903769,3,1
6,95,2,Play,1,0.5812,7,8,-7,0,0,0,2.666666667,8.386497084,3,1
6,10,1,Pass,0,1.3145,-8,-6,-7,0,0,0,-7,1,3,0
6,94,1,Pass,0,1.239,-9,3,-7,0,0,0,-4.333333333,6.429100507,3,1
6,32,2,Play,1,1.1808,3,6,6,0,0,0,5,1.732050808,3,0
6,94,1,Pass,0,1.6476,-7,8,-9,0,0,0,-2.666666667,9.291573243,3,1
6,91,1,Pass,0,0.6249,-9,-8,9,0,0,0,-2.666666667,10.11599394,3,1
6,10,1,Pass,0,0.5976,-7,-2,-6,0,0,0,-5,2.645751311,3,0
6,32,2,Play,1,1.7053,6,3,4,0,0,0,4.333333333,1.527525232,3,0
6,91,1,Pass,0,2.1924,9,-9,-1,0,0,0,-0.333333333,9.018499506,3,1
6,42,2,Play,1,1.9756,5,-1,5,3,3,-4,1.833333333,3.600925807,6,0
6,97,1,Pass,0,1.622,-7,-8,8,0,0,0,-2.333333333,8.96288644,3,1
6,42,2,Play,1,1.514,3,3,5,0,0,0,3.666666667,1.154700538,3,0
6,94,2,Play,1,0.7313,-9,3,8,0,0,0,0.666666667,8.736894948,3,1
6,94,2,Play,1,0.831,8,-7,3,0,0,0,1.333333333,7.637626158,3,1
6,95,1,Pass,0,1.5973,-3,-7,7,0,0,0,-1,7.211102551,3,1
6,95,1,Pass,0,1.388,-3,-9,-7,0,0,0,-6.333333333,3.055050463,3,1
6,42,2,Play,1,1.5399,5,-1,3,0,0,0,2.333333333,3.055050463,3,0
6,94,1,Pass,0,1.9376,-6,-9,8,0,0,0,-2.333333333,9.073771726,3,1
6,94,2,Play,1,1.6309,9,8,-7,0,0,0,3.333333333,8.96288644,3,1
6,94,2,Play,1,1.898,9,-9,8,0,0,0,2.666666667,10.11599394,3,1
6,94,1,Pass,0,1.6142,8,-6,-7,0,0,0,-1.666666667,8.386497084,3,1
6,94,2,Play,1,1.8205,8,9,-6,0,0,0,3.666666667,8.386497084,3,1
6,42,2,Play,1,0.6142,5,5,-4,0,0,0,2,5.196152423,3,0
6,94,1,Pass,0,1.6712,-6,-9,9,0,0,0,-2,9.643650761,3,1
6,10,1,Pass,0,0.7811,-2,-6,4,0,0,0,-1.333333333,5.033222957,3,0
6,95,1,Pass,0,0.6648,-7,-9,8,0,0,0,-2.666666667,9.291573243,3,1
6,42,1,Pass,0,0.5481,-1,-4,3,0,0,0,-0.666666667,3.511884584,3,0
6,47,1,Pass,0,2.0374,-3,-2,-4,0,0,0,-3,1,3,0
6,95,1,Pass,0,1.8635,-3,-9,8,0,0,0,-1.333333333,8.621678104,3,1
6,97,2,Play,1,1.6289,2,-5,9,0,0,0,2,7,3,1
6,47,1,Pass,0,1.4307,-4,2,-3,0,0,0,-1.666666667,3.214550254,3,0
6,32,2,Play,1,2.1807,2,-7,4,0,0,0,-0.333333333,5.859465277,3,0
6,47,2,Play,1,0.9212,-4,1,2,0,0,0,-0.333333333,3.214550254,3,0
6,10,1,Pass,0,1.6493,-8,-2,-7,0,0,0,-5.666666667,3.214550254,3,0
6,10,1,Pass,0,0.8542,4,-8,-2,0,0,0,-2,6,3,0
6,32,2,Play,1,1.9482,6,4,-7,0,0,0,1,7,3,0
6,10,2,Play,1,0.7083,4,5,-2,0,0,0,2.333333333,3.785938897,3,0
6,91,2,Play,1,1.8664,-8,6,4,0,0,0,0.666666667,7.571877794,3,1
6,97,1,Pass,0,1.7313,9,-5,-8,0,0,0,-1.333333333,9.073771726,3,1
6,32,2,Play,1,1.647,2,4,6,0,0,0,4,2,3,0
6,95,2,Play,1,0.6374,7,8,-9,0,0,0,2,9.539392014,3,1
6,91,1,Pass,0,1.6312,6,-8,-1,0,0,0,-1,7,3,1
6,95,2,Play,1,1.3883,7,-3,8,0,0,0,4,6.08276253,3,1
6,32,2,Play,1,0.6709,6,4,3,0,0,0,4.333333333,1.527525232,3,0
6,47,1,Pass,0,1.3054,-4,-3,1,0,0,0,-2,2.645751311,3,0
6,10,1,Pass,0,1.5317,-2,-8,-7,4,-6,5,-2.333333333,5.680375574,6,0
6,47,1,Pass,0,1.8474,-4,-2,-3,-4,1,2,-1.666666667,2.581988897,6,0
6,32,2,Play,1,1.5936,6,2,3,0,0,0,3.666666667,2.081665999,3,0
6,42,1,Pass,0,1.5036,-4,-1,5,0,0,0,0,4.582575695,3,0
6,10,1,Pass,0,0.6424,-7,-8,5,0,0,0,-3.333333333,7.234178138,3,0
6,10,1,Pass,0,0.6435,-8,-2,-6,0,0,0,-5.333333333,3.055050463,3,0
6,97,1,Pass,0,0.6957,-8,2,-5,0,0,0,-3.666666667,5.131601439,3,1
6,91,1,Pass,0,0.6731,-8,-9,6,0,0,0,-3.666666667,8.386497084,3,1
6,97,1,Pass,0,0.6216,2,-7,-8,0,0,0,-4.333333333,5.507570547,3,1
6,95,2,Play,1,1.8588,-3,8,7,0,0,0,4,6.08276253,3,1
6,97,1,Pass,0,1.4866,9,-7,-5,0,0,0,-1,8.717797887,3,1
6,47,1,Pass,0,0.6885,1,-2,-4,0,0,0,-1.666666667,2.516611478,3,0
6,97,2,Play,1,1.4977,-7,2,8,0,0,0,1,7.549834435,3,1
6,32,2,Play,1,1.3301,6,-7,4,0,0,0,1,7,3,0
6,42,2,Play,1,0.8422,3,3,-4,0,0,0,0.666666667,4.041451884,3,0
6,42,2,Play,1,0.6299,3,5,-1,0,0,0,2.333333333,3.055050463,3,0
6,32,2,Play,1,0.6721,2,3,4,0,0,0,3,1,3,0
6,91,1,Pass,0,1.5979,-1,-8,4,0,0,0,-1.666666667,6.027713773,3,1
6,47,1,Pass,0,0.672,1,-4,-3,0,0,0,-2,2.645751311,3,0
6,10,1,Pass,0,0.5644,-2,-7,5,0,0,0,-1.333333333,6.027713773,3,0
6,95,1,Pass,0,0.9979,-7,8,-3,0,0,0,-0.666666667,7.767453465,3,1
6,91,1,Pass,0,0.7296,-9,6,-1,0,0,0,-1.333333333,7.505553499,3,1
6,91,2,Play,1,2.0235,4,9,6,0,0,0,6.333333333,2.516611478,3,1
6,95,1,Pass,0,2.07,-3,-7,8,0,0,0,-0.666666667,7.767453465,3,1
6,97,2,Play,1,1.898,2,9,-7,0,0,0,1.333333333,8.020806277,3,1
6,32,2,Play,1,0.6626,2,6,6,0,0,0,4.666666667,2.309401077,3,0
6,10,1,Pass,0,1.7637,-6,-7,5,0,0,0,-2.666666667,6.658328118,3,0
6,42,2,Play,1,3.1149,3,3,-1,0,0,0,1.666666667,2.309401077,3,0
6,47,1,Pass,0,1.6396,1,-2,-4,0,0,0,-1.666666667,2.516611478,3,0
6,95,2,Play,1,2.0404,8,8,-9,0,0,0,2.333333333,9.814954576,3,1
6,47,2,Play,1,0.5978,1,2,-2,0,0,0,0.333333333,2.081665999,3,0
6,42,2,Play,1,0.7445,5,3,5,0,0,0,4.333333333,1.154700538,3,0
6,91,1,Pass,0,2.4377,6,-9,9,-8,4,-1,0.166666667,7.467708261,6,1
6,42,1,Pass,0,2.3823,-1,-4,5,0,0,0,0,4.582575695,3,0
6,42,2,Play,1,1.4752,5,5,-1,0,0,0,3,3.464101615,3,0
6,95,1,Pass,0,1.6818,7,-3,-9,0,0,0,-1.666666667,8.082903769,3,1
6,10,1,Pass,0,1.2234,4,-8,-7,0,0,0,-3.666666667,6.658328118,3,0
6,95,1,Pass,0,0.7079,-9,-7,8,0,0,0,-2.666666667,9.291573243,3,1
6,91,1,Pass,0,0.7811,-1,4,-9,0,0,0,-2,6.557438524,3,1
6,32,2,Play,1,1.581,4,6,6,0,0,0,5.333333333,1.154700538,3,0
6,32,2,Play,1,1.0466,6,6,-7,0,0,0,1.666666667,7.505553499,3,0
6,91,2,Play,1,0.8719,9,-8,4,0,0,0,1.666666667,8.736894948,3,1
6,91,2,Play,1,1.0382,4,6,-1,0,0,0,3,3.605551275,3,1
6,32,2,Play,1,0.6986,4,3,-7,0,0,0,0,6.08276253,3,0
6,47,1,Pass,0,1.9469,2,-2,-3,0,0,0,-1,2.645751311,3,0
6,97,2,Play,1,3.1147,9,2,-8,0,0,0,1,8.544003745,3,1
6,47,1,Pass,0,1.3817,-4,-2,-4,0,0,0,-3.333333333,1.154700538,3,0
6,97,2,Play,1,1.8559,8,9,-5,0,0,0,4,7.810249676,3,1
6,42,2,Play,1,0.7408,-4,3,5,0,0,0,1.333333333,4.725815626,3,0
6,91,2,Play,1,0.6079,9,6,-8,0,0,0,2.333333333,9.073771726,3,1
6,32,2,Play,1,0.781,3,-7,4,2,6,6,2.333333333,4.844240567,6,0
6,94,1,Pass,0,2.1118,-7,9,-9,0,0,0,-2.333333333,9.865765725,3,1
6,10,1,Pass,0,0.905,4,-6,-8,0,0,0,-3.333333333,6.429100507,3,0
6,32,2,Play,1,1.5991,4,2,6,0,0,0,4,2,3,0
6,32,2,Play,1,0.6556,-7,2,6,0,0,0,0.333333333,6.658328118,3,0
7,95,1,Pass,0,2.3232,7,-7,-9,0,0,0,-3,8.717797887,3,1
7,91,1,Pass,0,3.3887,9,-9,-1,0,0,0,-0.333333333,9.018499506,3,1
7,10,1,Pass,0,2.9217,-8,-6,5,0,0,0,-3,7,3,0
7,94,1,Pass,0,3.9253,-7,8,-9,0,0,0,-2.666666667,9.291573243,3,1
7,47,1,Pass,0,2.8294,1,-4,-3,0,0,0,-2,2.645751311,3,0
7,94,2,Play,1,2.8427,-9,3,8,0,0,0,0.666666667,8.736894948,3,1
7,32,2,Play,1,1.89,2,6,6,0,0,0,4.666666667,2.309401077,3,0
7,32,2,Play,1,1.7852,6,4,3,0,0,0,4.333333333,1.527525232,3,0
7,91,2,Play,1,2.2805,4,6,-1,0,0,0,3,3.605551275,3,1
7,95,2,Play,1,1.7175,7,8,-7,0,0,0,2.666666667,8.386497084,3,1
7,47,2,Play,1,2.829,1,2,-2,0,0,0,0.333333333,2.081665999,3,0
7,32,2,Play,1,2.1578,3,6,-7,0,0,0,0.666666667,6.806859286,3,0
7,91,2,Play,1,2.0359,-9,4,6,0,0,0,0.333333333,8.144527815,3,1
7,47,1,Pass,0,1.8506,-4,1,2,0,0,0,-0.333333333,3.214550254,3,0
7,42,1,Pass,0,2.0358,3,-4,-1,0,0,0,-0.666666667,3.511884584,3,0
7,95,1,Pass,0,2.1132,-3,-7,7,0,0,0,-1,7.211102551,3,1
7,95,2,Play,1,2.0085,8,-9,7,0,0,0,2,9.539392014,3,1
7,32,2,Play,1,1.4313,3,6,6,0,0,0,5,1.732050808,3,0
7,95,2,Play,1,1.4999,8,8,-9,0,0,0,2.333333333,9.814954576,3,1
7,91,2,Play,1,1.993,-1,9,6,0,0,0,4.666666667,5.131601439,3,1
7,91,2,Play,1,2.0853,9,6,-8,0,0,0,2.333333333,9.073771726,3,1
7,94,2,Play,1,1.6355,9,8,-7,0,0,0,3.333333333,8.96288644,3,1
7,91,1,Pass,0,2.5683,-9,6,-1,0,0,0,-1.333333333,7.505553499,3,1
7,97,2,Play,1,2.1111,2,-5,9,0,0,0,2,7,3,1
7,91,1,Pass,0,2.0814,-1,4,-9,0,0,0,-2,6.557438524,3,1
7,42,2,Play,1,3.162,5,-4,3,0,0,0,1.333333333,4.725815626,3,0
7,97,2,Play,1,2.5909,8,9,-7,0,0,0,3.333333333,8.96288644,3,1
7,47,1,Pass,0,1.7416,-3,-2,-4,0,0,0,-3,1,3,0
7,32,2,Play,1,3.151,2,6,-7,0,0,0,0.333333333,6.658328118,3,0
7,97,1,Pass,0,8.1294,2,9,-5,-7,8,-8,-0.166666667,7.574078602,6,1
7,32,2,Play,1,1.8998,6,2,3,0,0,0,3.666666667,2.081665999,3,0
7,47,1,Pass,0,2.9538,-3,-4,2,0,0,0,-1.666666667,3.214550254,3,0
7,42,2,Play,1,2.2206,5,5,-1,0,0,0,3,3.464101615,3,0
7,47,1,Pass,0,1.8665,-2,1,-3,0,0,0,-1.333333333,2.081665999,3,0
7,97,2,Play,1,2.4404,2,9,-7,0,0,0,1.333333333,8.020806277,3,1
7,95,2,Play,1,1.5864,8,8,-7,0,0,0,3,8.660254038,3,1
7,94,1,Pass,0,2.2144,-6,-9,8,0,0,0,-2.333333333,9.073771726,3,1
7,94,2,Play,1,2.0423,8,-7,3,0,0,0,1.333333333,7.637626158,3,1
7,95,1,Pass,0,1.8945,-3,-9,8,0,0,0,-1.333333333,8.621678104,3,1
7,10,1,Pass,0,1.7446,-2,-6,4,0,0,0,-1.333333333,5.033222957,3,0
7,94,1,Pass,0,2.251,-6,9,-7,0,0,0,-1.333333333,8.96288644,3,1
7,10,1,Pass,0,1.84,-6,-7,5,0,0,0,-2.666666667,6.658328118,3,0
7,97,1,Pass,0,1.6874,-7,-8,8,0,0,0,-2.333333333,8.96288644,3,1
7,95,2,Play,1,1.6934,7,8,-7,0,0,0,2.666666667,8.386497084,3,1
7,91,2,Play,1,1.949,9,-9,4,0,0,0,1.333333333,9.291573243,3,1
7,32,2,Play,1,1.3427,6,3,4,0,0,0,4.333333333,1.527525232,3,0
7,91,1,Pass,0,4.4375,-8,9,-1,0,0,0,0,8.544003745,3,1
7,47,1,Pass,0,1.7308,-4,-3,-4,0,0,0,-3.666666667,0.577350269,3,0
7,47,1,Pass,0,2.1313,2,-2,-3,0,0,0,-1,2.645751311,3,0
7,91,1,Pass,0,1.5678,-1,-9,-8,0,0,0,-6,4.358898944,3,1
7,10,2,Play,1,1.9272,4,5,-2,0,0,0,2.333333333,3.785938897,3,0
7,91,1,Pass,0,1.9182,-8,4,-9,0,0,0,-4.333333333,7.234178138,3,1
7,42,2,Play,1,3.2956,5,-1,5,3,3,-4,1.833333333,3.600925807,6,0
7,95,1,Pass,0,3.058,-7,8,-3,0,0,0,-0.666666667,7.767453465,3,1
7,97,2,Play,1,1.6967,9,8,-8,0,0,0,3,9.539392014,3,1
7,47,1,Pass,0,1.7253,-2,-4,2,0,0,0,-1.333333333,3.055050463,3,0
7,10,1,Pass,0,2.0262,4,-8,-7,0,0,0,-3.666666667,6.658328118,3,0
7,94,1,Pass,0,1.7992,3,-9,-6,0,0,0,-4,6.244997998,3,1
7,32,2,Play,1,2.455,6,4,-7,0,0,0,1,7,3,0
7,94,1,Pass,0,2.4697,8,-6,-7,0,0,0,-1.666666667,8.386497084,3,1
7,47,1,Pass,0,1.5801,-3,-4,-2,0,0,0,-3,1,3,0
7,47,1,Pass,0,1.9113,2,-4,-4,0,0,0,-2,3.464101615,3,0
7,94,1,Pass,0,1.8029,-7,3,-6,0,0,0,-3.333333333,5.507570547,3,1
7,95,1,Pass,0,2.0037,-9,-7,8,0,0,0,-2.666666667,9.291573243,3,1
7,97,1,Pass,0,2.3436,-8,2,-5,0,0,0,-3.666666667,5.131601439,3,1
7,97,2,Play,1,1.8963,8,9,-5,0,0,0,4,7.810249676,3,1
7,42,2,Play,1,1.9079,5,3,5,0,0,0,4.333333333,1.154700538,3,0
7,91,1,Pass,0,1.897,6,-8,-1,0,0,0,-1,7,3,1
7,94,1,Pass,0,1.8001,-6,-9,9,0,0,0,-2,9.643650761,3,1
7,42,2,Play,1,1.5749,3,3,5,0,0,0,3.666666667,1.154700538,3,0
7,91,2,Play,1,2.0326,6,-9,9,0,0,0,2,9.643650761,3,1
7,10,1,Pass,0,1.5509,-8,-2,-7,0,0,0,-5.666666667,3.214550254,3,0
7,97,1,Pass,0,1.4605,-5,-8,-7,0,0,0,-6.666666667,1.527525232,3,1
7,42,2,Play,1,2.813,5,-1,3,0,0,0,2.333333333,3.055050463,3,0
7,95,1,Pass,0,1.5753,-3,-7,8,0,0,0,-0.666666667,7.767453465,3,1
7,95,2,Play,1,9.5059,8,7,-9,-3,8,-7,0.666666667,7.916228058,6,1
7,32,1,Pass,0,3.3787,2,-7,3,0,0,0,-0.666666667,5.507570547,3,0
7,42,2,Play,1,1.8446,5,3,3,0,0,0,3.666666667,1.154700538,3,0
7,95,1,Pass,0,1.6267,-3,-9,-7,0,0,0,-6.333333333,3.055050463,3,1
7,32,2,Play,1,1.6215,3,6,2,0,0,0,3.666666667,2.081665999,3,0
7,10,1,Pass,0,1.5349,-8,-6,-7,0,0,0,-7,1,3,0
7,47,1,Pass,0,2.7206,-4,-2,-3,-4,1,2,-1.666666667,2.581988897,6,0
7,10,1,Pass,0,1.6387,-2,-7,5,0,0,0,-1.333333333,6.027713773,3,0
7,91,1,Pass,0,1.8867,-8,-9,6,0,0,0,-3.666666667,8.386497084,3,1
7,10,2,Play,1,2.8228,4,-6,5,0,0,0,1,6.08276253,3,0
7,94,1,Pass,0,6.195,8,-7,-9,-6,3,9,-0.333333333,7.991662322,6,1
7,47,1,Pass,0,2.1521,2,-2,-4,0,0,0,-1.333333333,3.055050463,3,0
7,42,2,Play,1,1.6449,5,5,3,0,0,0,4.333333333,1.154700538,3,0
7,32,2,Play,1,2.4403,-7,2,6,0,0,0,0.333333333,6.658328118,3,0
7,95,1,Pass,0,2.1192,-9,8,-3,0,0,0,-1.333333333,8.621678104,3,1
7,42,2,Play,1,1.7507,3,3,-1,0,0,0,1.666666667,2.309401077,3,0
7,32,1,Pass,0,2.7192,4,3,-7,0,0,0,0,6.08276253,3,0
7,95,1,Pass,0,2.1006,7,-3,-9,0,0,0,-1.666666667,8.082903769,3,1
7,97,2,Play,1,1.9439,2,8,-8,0,0,0,0.666666667,8.082903769,3,1
7,94,2,Play,1,2.0882,3,9,-7,0,0,0,1.666666667,8.082903769,3,1
7,47,1,Pass,0,1.665,1,-2,-4,0,0,0,-1.666666667,2.516611478,3,0
7,32,1,Pass,0,2.5887,2,-7,4,0,0,0,-0.333333333,5.859465277,3,0
7,94,2,Play,1,1.7814,-6,3,9,0,0,0,2,7.549834435,3,1
7,10,1,Pass,0,1.5741,-7,-2,-6,0,0,0,-5,2.645751311,3,0
7,97,1,Pass,0,1.3398,-8,-5,8,0,0,0,-1.666666667,8.504900548,3,1
7,97,1,Pass,0,1.6664,2,-7,-5,0,0,0,-3.333333333,4.725815626,3,1
7,94,1,Pass,0,1.9528,-9,3,-7,0,0,0,-4.333333333,6.429100507,3,1
7,94,2,Play,1,1.5827,8,9,-6,0,0,0,3.666666667,8.386497084,3,1
7,94,2,Play,1,1.7547,9,3,-9,0,0,0,1,9.16515139,3,1
7,32,2,Play,1,1.9008,6,-7,4,0,0,0,1,7,3,0
7,47,1,Pass,0,1.4715,-4,-2,-4,0,0,0,-3.333333333,1.154700538,3,0
7,47,1,Pass,0,1.8205,1,-4,-4,0,0,0,-2.333333333,2.886751346,3,0
7,91,2,Play,1,1.8294,4,9,-1,0,0,0,4,5,3,1
7,94,2,Play,1,2.1698,3,-6,8,0,0,0,1.666666667,7.094598885,3,1
7,94,2,Play,1,1.8058,3,9,8,0,0,0,6.666666667,3.214550254,3,1
7,97,2,Play,1,1.9819,9,2,-8,0,0,0,1,8.544003745,3,1
7,32,2,Play,1,2.6699,6,6,-7,0,0,0,1.666666667,7.505553499,3,0
7,95,2,Play,1,1.3684,7,8,8,0,0,0,7.666666667,0.577350269,3,1
7,91,1,Pass,0,5.0742,6,-9,9,-8,4,-1,0.166666667,7.467708261,6,1
7,42,2,Play,1,1.6281,-4,5,3,0,0,0,1.333333333,4.725815626,3,0
7,91,2,Play,1,3.163,-8,6,4,0,0,0,0.666666667,7.571877794,3,1
7,97,2,Play,1,1.8759,-7,2,8,0,0,0,1,7.549834435,3,1
7,47,1,Pass,0,2.0666,2,1,-3,0,0,0,0,2.645751311,3,0
7,10,1,Pass,0,2.1811,4,-8,-2,0,0,0,-2,6,3,0
7,42,2,Play,1,1.9487,-1,3,5,0,0,0,2.333333333,3.055050463,3,0
7,32,2,Play,1,1.3203,2,4,6,0,0,0,4,2,3,0
7,32,2,Play,1,2.3154,-7,3,6,0,0,0,0.666666667,6.806859286,3,0
7,42,2,Play,1,1.9588,-4,3,5,0,0,0,1.333333333,4.725815626,3,0
7,47,1,Pass,0,1.8789,1,-2,-4,0,0,0,-1.666666667,2.516611478,3,0
7,94,1,Pass,0,2.4611,-7,9,-9,0,0,0,-2.333333333,9.865765725,3,1
7,10,1,Pass,0,2.4812,-2,-8,-7,4,-6,5,-2.333333333,5.680375574,6,0
7,94,2,Play,1,2.6819,9,-9,8,0,0,0,2.666666667,10.11599394,3,1
7,10,1,Pass,0,2.222,4,-6,-8,0,0,0,-3.333333333,6.429100507,3,0
7,97,2,Play,1,1.9272,2,8,9,0,0,0,6.333333333,3.785938897,3,1
7,47,1,Pass,0,1.6952,-4,-3,1,0,0,0,-2,2.645751311,3,0
7,95,2,Play,1,1.6849,-3,8,8,0,0,0,4.333333333,6.350852961,3,1
7,97,1,Pass,0,1.83,-8,9,-7,0,0,0,-2,9.539392014,3,1
7,97,1,Pass,0,2.1536,9,-5,-8,0,0,0,-1.333333333,9.073771726,3,1
7,42,2,Play,1,1.9349,5,5,-4,0,0,0,2,5.196152423,3,0
7,95,2,Play,1,1.9135,-3,8,7,0,0,0,4,6.08276253,3,1
7,42,2,Play,1,1.9079,-4,5,3,0,0,0,1.333333333,4.725815626,3,0
7,10,1,Pass,0,1.2842,-8,-2,-6,0,0,0,-5.333333333,3.055050463,3,0
7,42,1,Pass,0,1.8787,-1,-4,5,0,0,0,0,4.582575695,3,0
7,32,2,Play,1,1.6355,4,6,6,0,0,0,5.333333333,1.154700538,3,0
7,10,2,Play,1,1.7738,5,4,-8,0,0,0,0.333333333,7.234178138,3,0
7,91,2,Play,1,1.7865,9,-8,4,0,0,0,1.666666667,8.736894948,3,1
7,42,2,Play,1,2.1487,3,5,-1,0,0,0,2.333333333,3.055050463,3,0
7,91,2,Play,1,1.6599,4,9,6,0,0,0,6.333333333,2.516611478,3,1
7,47,1,Pass,0,1.8808,-4,2,-3,0,0,0,-1.666666667,3.214550254,3,0
7,97,1,Pass,0,2.3315,-7,8,-5,0,0,0,-1.333333333,8.144527815,3,1
7,10,1,Pass,0,1.8155,-2,-7,4,0,0,0,-1.666666667,5.507570547,3,0
7,10,1,Pass,0,1.4548,-7,-6,4,0,0,0,-3,6.08276253,3,0
7,10,1,Pass,0,1.4391,-7,-8,5,0,0,0,-3.333333333,7.234178138,3,0
7,42,2,Play,1,2.1026,3,3,-4,0,0,0,0.666666667,4.041451884,3,0
7,42,1,Pass,0,2.0815,-4,-1,5,0,0,0,0,4.582575695,3,0
7,42,2,Play,1,1.8483,5,-1,3,0,0,0,2.333333333,3.055050463,3,0
7,10,1,Pass,0,2.0189,-2,5,-6,0,0,0,-1,5.567764363,3,0
7,95,2,Play,1,1.9694,7,8,-9,0,0,0,2,9.539392014,3,1
7,10,2,Play,1,4.258,5,4,-7,0,0,0,0.666666667,6.658328118,3,0
7,10,1,Pass,0,2.2123,-8,5,-2,0,0,0,-1.666666667,6.506407099,3,0
7,97,1,Pass,0,1.834,9,-7,-5,0,0,0,-1,8.717797887,3,1
7,97,1,Pass,0,1.2911,2,-7,-8,0,0,0,-4.333333333,5.507570547,3,1
7,97,2,Play,1,2.0998,2,-5,8,0,0,0,1.666666667,6.506407099,3,1
7,32,2,Play,1,1.5982,2,3,4,0,0,0,3,1,3,0
7,32,2,Play,1,2.1164,3,-7,4,2,6,6,2.333333333,4.844240567,6,0
7,32,2,Play,1,1.4535,4,2,6,0,0,0,4,2,3,0
7,42,1,Pass,0,1.8327,-1,-4,3,0,0,0,-0.666666667,3.511884584,3,0
7,94,1,Pass,0,1.2811,-7,-6,-9,0,0,0,-7.333333333,1.527525232,3,1
7,95,1,Pass,0,1.6117,-7,-9,8,0,0,0,-2.666666667,9.291573243,3,1
7,47,1,Pass,0,2.4645,-4,1,2,0,0,0,-0.333333333,3.214550254,3,0
7,95,2,Play,1,2.1767,7,-3,8,0,0,0,4,6.08276253,3,1
7,91,1,Pass,0,1.4693,-1,-8,4,0,0,0,-1.666666667,6.027713773,3,1
7,91,1,Pass,0,1.7598,-9,-8,9,0,0,0,-2.666666667,10.11599394,3,1
8,94,2,Play,1,3.3361,-6,3,9,0,0,0,2,7.549834435,3,1
8,42,2,Play,1,2.0849,5,5,3,0,0,0,4.333333333,1.154700538,3,0
8,91,2,Play,1,1.5531,4,6,-1,0,0,0,3,3.605551275,3,1
8,91,2,Play,1,1.5325,4,9,-1,0,0,0,4,5,3,1
8,10,1,Pass,0,2.3866,4,-8,-7,0,0,0,-3.666666667,6.658328118,3,0
8,91,1,Pass,0,1.519,-9,-8,9,0,0,0,-2.666666667,10.11599394,3,1
8,94,1,Pass,0,1.1522,3,-9,-6,0,0,0,-4,6.244997998,3,1
8,47,1,Pass,0,1.2057,-3,-4,-2,0,0,0,-3,1,3,0
8,95,1,Pass,0,1.5634,7,-7,-9,0,0,0,-3,8.717797887,3,1
8,94,1,Pass,0,1.2712,-6,-9,8,0,0,0,-2.333333333,9.073771726,3,1
8,91,1,Pass,0,1.2615,-8,4,-9,0,0,0,-4.333333333,7.234178138,3,1
8,10,1,Pass,0,1.1198,4,-8,-2,0,0,0,-2,6,3,0
8,94,1,Pass,0,1.1017,8,-6,-7,0,0,0,-1.666666667,8.386497084,3,1
8,42,1,Pass,0,1.3358,5,-4,3,0,0,0,1.333333333,4.725815626,3,0
8,42,1,Pass,0,1.1249,-1,-4,5,0,0,0,0,4.582575695,3,0
8,32,2,Play,1,2.1622,3,6,6,0,0,0,5,1.732050808,3,0
8,42,1,Pass,0,2.2072,-1,-4,3,0,0,0,-0.666666667,3.511884584,3,0
8,97,1,Pass,0,1.2355,2,-7,-5,0,0,0,-3.333333333,4.725815626,3,1
8,95,2,Play,1,2.5505,7,-3,8,0,0,0,4,6.08276253,3,1
8,94,1,Pass,0,2.9873,8,-7,-9,-6,3,9,-0.333333333,7.991662322,6,1
8,42,2,Play,1,2.2363,3,3,-4,0,0,0,0.666666667,4.041451884,3,0
8,10,1,Pass,0,1.8045,-8,-2,-7,0,0,0,-5.666666667,3.214550254,3,0
8,42,1,Pass,0,1.0308,3,-4,-1,0,0,0,-0.666666667,3.511884584,3,0
8,95,2,Play,1,2.4415,7,8,-7,0,0,0,2.666666667,8.386497084,3,1
8,42,1,Pass,0,1.6534,3,5,-1,0,0,0,2.333333333,3.055050463,3,0
8,91,2,Play,1,1.9845,-8,6,4,0,0,0,0.666666667,7.571877794,3,1
8,97,1,Pass,0,1.9823,-7,-8,8,0,0,0,-2.333333333,8.96288644,3,1
8,47,1,Pass,0,1.268,1,-2,-4,0,0,0,-1.666666667,2.516611478,3,0
8,94,2,Play,1,3.1528,3,9,-7,0,0,0,1.666666667,8.082903769,3,1
8,97,2,Play,1,2.8031,2,9,-7,0,0,0,1.333333333,8.020806277,3,1
8,91,1,Pass,0,1.4038,-1,4,-9,0,0,0,-2,6.557438524,3,1
8,47,1,Pass,0,0.9373,-4,-3,-4,0,0,0,-3.666666667,0.577350269,3,0
8,32,2,Play,1,2.103,2,6,6,0,0,0,4.666666667,2.309401077,3,0
8,10,1,Pass,0,3.7182,-7,-2,-6,0,0,0,-5,2.645751311,3,0
8,95,2,Play,1,2.9711,7,8,8,0,0,0,7.666666667,0.577350269,3,1
8,95,2,Play,1,1.3015,8,8,-7,0,0,0,3,8.660254038,3,1
8,91,1,Pass,0,2.3353,-8,9,-1,0,0,0,0,8.544003745,3,1
8,42,2,Play,1,2.0346,5,3,5,0,0,0,4.333333333,1.154700538,3,0
8,95,1,Pass,0,3.1351,7,8,-9,0,0,0,2,9.539392014,3,1
8,91,1,Pass,0,1.2,6,-8,-1,0,0,0,-1,7,3,1
8,94,1,Pass,0,1.2927,-7,-6,-9,0,0,0,-7.333333333,1.527525232,3,1
8,10,1,Pass,0,1.1194,-8,-6,5,0,0,0,-3,7,3,0
8,10,1,Pass,0,0.9932,-2,-7,4,0,0,0,-1.666666667,5.507570547,3,0
8,10,1,Pass,0,0.9758,-2,-6,4,0,0,0,-1.333333333,5.033222957,3,0
8,47,1,Pass,0,1.0357,2,-2,-4,0,0,0,-1.333333333,3.055050463,3,0
8,95,1,Pass,0,1.2698,-7,8,-3,0,0,0,-0.666666667,7.767453465,3,1
8,42,1,Pass,0,1.6103,5,-1,3,0,0,0,2.333333333,3.055050463,3,0
8,32,1,Pass,0,1.3467,-7,3,6,0,0,0,0.666666667,6.806859286,3,0
8,91,1,Pass,0,1.6528,-8,-9,6,0,0,0,-3.666666667,8.386497084,3,1
8,42,2,Play,1,2.7192,-1,3,5,0,0,0,2.333333333,3.055050463,3,0
8,47,1,Pass,0,1.7576,2,-2,-3,0,0,0,-1,2.645751311,3,0
8,94,2,Play,1,2.1079,9,8,-7,0,0,0,3.333333333,8.96288644,3,1
8,32,1,Pass,0,2.0555,4,3,-7,0,0,0,0,6.08276253,3,0
8,91,1,Pass,0,1.0762,-1,-8,4,0,0,0,-1.666666667,6.027713773,3,1
8,42,1,Pass,0,3.0085,5,-1,5,3,3,-4,1.833333333,3.600925807,6,0
8,91,1,Pass,0,2.8915,6,-9,9,0,0,0,2,9.643650761,3,1
8,97,1,Pass,0,3.6177,9,2,-8,0,0,0,1,8.544003745,3,1
8,47,1,Pass,0,1.096,2,-4,-4,0,0,0,-2,3.464101615,3,0
8,97,1,Pass,0,1.6577,9,-5,-8,0,0,0,-1.333333333,9.073771726,3,1
8,10,1,Pass,0,1.3383,4,5,-2,0,0,0,2.333333333,3.785938897,3,0
8,47,1,Pass,0,1.8104,1,-2,-4,0,0,0,-1.666666667,2.516611478,3,0
8,97,2,Play,1,4.5704,8,9,-7,0,0,0,3.333333333,8.96288644,3,1
8,32,2,Play,1,1.9973,2,3,4,0,0,0,3,1,3,0
8,10,1,Pass,0,2.2721,-6,-7,5,0,0,0,-2.666666667,6.658328118,3,0
8,47,1,Pass,0,2.5697,-3,-2,-4,0,0,0,-3,1,3,0
8,10,1,Pass,0,1.2523,4,-6,5,0,0,0,1,6.08276253,3,0
8,10,1,Pass,0,1.0869,-2,-8,-7,4,-6,5,-2.333333333,5.680375574,6,0
8,95,2,Play,1,2.6337,-3,8,8,0,0,0,4.333333333,6.350852961,3,1
8,10,1,Pass,0,1.5691,4,-6,-8,0,0,0,-3.333333333,6.429100507,3,0
8,94,1,Pass,0,1.4532,9,3,-9,0,0,0,1,9.16515139,3,1
8,42,1,Pass,0,1.1705,5,5,-4,0,0,0,2,5.196152423,3,0
8,94,1,Pass,0,1.0715,-6,9,-7,0,0,0,-1.333333333,8.96288644,3,1
8,91,1,Pass,0,2.8965,9,6,-8,0,0,0,2.333333333,9.073771726,3,1
8,95,1,Pass,0,1.0032,7,8,-7,0,0,0,2.666666667,8.386497084,3,1
8,95,1,Pass,0,1.018,8,8,-9,0,0,0,2.333333333,9.814954576,3,1
8,95,1,Pass,0,1.0346,-3,8,7,0,0,0,4,6.08276253,3,1
8,42,1,Pass,0,1.4354,-4,3,5,0,0,0,1.333333333,4.725815626,3,0
8,47,1,Pass,0,1.1533,-4,-2,-3,-4,1,2,-1.666666667,2.581988897,6,0
8,47,1,Pass,0,1.4103,-4,1,2,0,0,0,-0.333333333,3.214550254,3,0
8,91,1,Pass,0,3.3675,9,-9,4,0,0,0,1.333333333,9.291573243,3,1
8,47,1,Pass,0,1.19,-2,1,-3,0,0,0,-1.333333333,2.081665999,3,0
8,94,2,Play,1,2.2428,3,9,8,0,0,0,6.666666667,3.214550254,3,1
8,97,1,Pass,0,2.1778,-8,9,-7,0,0,0,-2,9.539392014,3,1
8,97,1,Pass,0,1.8543,2,8,-8,0,0,0,0.666666667,8.082903769,3,1
8,97,2,Play,1,4.0364,8,9,-5,0,0,0,4,7.810249676,3,1
8,10,1,Pass,0,1.5952,-8,-6,-7,0,0,0,-7,1,3,0
8,10,1,Pass,0,1.5719,-8,-2,-6,0,0,0,-5.333333333,3.055050463,3,0
8,94,1,Pass,0,4.1911,-9,3,-7,0,0,0,-4.333333333,6.429100507,3,1
8,10,1,Pass,0,1.3296,-2,-7,5,0,0,0,-1.333333333,6.027713773,3,0
8,47,1,Pass,0,1.1994,-4,-3,1,0,0,0,-2,2.645751311,3,0
8,47,1,Pass,0,1.1377,-4,2,-3,0,0,0,-1.666666667,3.214550254,3,0
8,47,1,Pass,0,1.0357,-4,-2,-4,0,0,0,-3.333333333,1.154700538,3,0
8,32,1,Pass,0,2.6513,2,6,-7,0,0,0,0.333333333,6.658328118,3,0
8,42,1,Pass,0,1.323,5,5,-1,0,0,0,3,3.464101615,3,0
8,94,1,Pass,0,1.1506,8,-7,3,0,0,0,1.333333333,7.637626158,3,1
8,10,1,Pass,0,0.9885,-8,5,-2,0,0,0,-1.666666667,6.506407099,3,0
8,42,1,Pass,0,1.4596,-4,-1,5,0,0,0,0,4.582575695,3,0
8,32,2,Play,1,3.042,3,6,2,0,0,0,3.666666667,2.081665999,3,0
8,97,1,Pass,0,3.0703,2,-5,9,0,0,0,2,7,3,1
8,32,2,Play,1,1.0925,6,3,4,0,0,0,4.333333333,1.527525232,3,0
8,94,1,Pass,0,2.4028,-6,-9,9,0,0,0,-2,9.643650761,3,1
8,95,1,Pass,0,1.3666,-3,-7,8,0,0,0,-0.666666667,7.767453465,3,1
8,91,1,Pass,0,1.2521,-1,-9,-8,0,0,0,-6,4.358898944,3,1
8,95,1,Pass,0,0.9961,-3,-9,-7,0,0,0,-6.333333333,3.055050463,3,1
8,97,2,Play,1,2.4307,2,8,9,0,0,0,6.333333333,3.785938897,3,1
8,97,1,Pass,0,2.1541,2,9,-5,-7,8,-8,-0.166666667,7.574078602,6,1
8,32,1,Pass,0,1.1441,6,-7,4,0,0,0,1,7,3,0
8,95,1,Pass,0,1.0332,-3,-9,8,0,0,0,-1.333333333,8.621678104,3,1
8,97,1,Pass,0,1.1354,9,-7,-5,0,0,0,-1,8.717797887,3,1
8,32,2,Play,1,2.4029,4,6,6,0,0,0,5.333333333,1.154700538,3,0
8,47,1,Pass,0,6.7853,1,2,-2,0,0,0,0.333333333,2.081665999,3,0
8,47,1,Pass,0,2.3538,2,1,-3,0,0,0,0,2.645751311,3,0
8,32,1,Pass,0,1.3043,6,4,-7,0,0,0,1,7,3,0
8,32,1,Pass,0,1.234,2,-7,4,0,0,0,-0.333333333,5.859465277,3,0
8,32,2,Play,1,2.5357,2,4,6,0,0,0,4,2,3,0
8,97,1,Pass,0,2.4581,-7,8,-5,0,0,0,-1.333333333,8.144527815,3,1
8,95,1,Pass,0,1.0538,-3,-7,7,0,0,0,-1,7.211102551,3,1
8,10,1,Pass,0,1.0903,5,4,-8,0,0,0,0.333333333,7.234178138,3,0
8,32,2,Play,1,2.6845,6,2,3,0,0,0,3.666666667,2.081665999,3,0
8,47,1,Pass,0,2.2375,1,-4,-4,0,0,0,-2.333333333,2.886751346,3,0
8,32,1,Pass,0,2.9858,6,6,-7,0,0,0,1.666666667,7.505553499,3,0
8,94,1,Pass,0,1.2767,3,-6,8,0,0,0,1.666666667,7.094598885,3,1
8,97,1,Pass,0,1.0914,-8,2,-5,0,0,0,-3.666666667,5.131601439,3,1
8,47,1,Pass,0,1.9891,-4,1,2,0,0,0,-0.333333333,3.214550254,3,0
8,42,1,Pass,0,1.1372,5,-1,3,0,0,0,2.333333333,3.055050463,3,0
8,97,1,Pass,0,0.9801,-5,-8,-7,0,0,0,-6.666666667,1.527525232,3,1
8,32,2,Play,1,3.233,3,-7,4,2,6,6,2.333333333,4.844240567,6,0
8,10,1,Pass,0,1.9202,5,4,-7,0,0,0,0.666666667,6.658328118,3,0
8,94,1,Pass,0,1.6951,-7,9,-9,0,0,0,-2.333333333,9.865765725,3,1
8,94,1,Pass,0,2.8364,-9,3,8,0,0,0,0.666666667,8.736894948,3,1
8,95,1,Pass,0,1.3824,8,7,-9,-3,8,-7,0.666666667,7.916228058,6,1
8,94,1,Pass,0,0.9755,-7,3,-6,0,0,0,-3.333333333,5.507570547,3,1
8,10,1,Pass,0,0.9326,-7,-8,5,0,0,0,-3.333333333,7.234178138,3,0
8,97,1,Pass,0,1.0425,-7,2,8,0,0,0,1,7.549834435,3,1
8,32,1,Pass,0,0.9529,3,6,-7,0,0,0,0.666666667,6.806859286,3,0
8,32,2,Play,1,2.1699,6,4,3,0,0,0,4.333333333,1.527525232,3,0
8,97,1,Pass,0,2.1847,9,8,-8,0,0,0,3,9.539392014,3,1
8,42,2,Play,1,2.2199,3,3,5,0,0,0,3.666666667,1.154700538,3,0
8,32,1,Pass,0,2.2525,2,-7,3,0,0,0,-0.666666667,5.507570547,3,0
8,95,1,Pass,0,1.0855,7,-3,-9,0,0,0,-1.666666667,8.082903769,3,1
8,10,1,Pass,0,1.151,-2,5,-6,0,0,0,-1,5.567764363,3,0
8,95,1,Pass,0,1.1874,-9,8,-3,0,0,0,-1.333333333,8.621678104,3,1
8,97,1,Pass,0,1.0762,2,-7,-8,0,0,0,-4.333333333,5.507570547,3,1
8,97,1,Pass,0,1.0012,-8,-5,8,0,0,0,-1.666666667,8.504900548,3,1
8,94,1,Pass,0,1.0193,-7,8,-9,0,0,0,-2.666666667,9.291573243,3,1
8,42,1,Pass,0,1.1003,-4,5,3,0,0,0,1.333333333,4.725815626,3,0
8,91,1,Pass,0,0.9515,-9,6,-1,0,0,0,-1.333333333,7.505553499,3,1
8,42,1,Pass,0,0.953,-4,5,3,0,0,0,1.333333333,4.725815626,3,0
8,91,1,Pass,0,1.0079,9,-8,4,0,0,0,1.666666667,8.736894948,3,1
8,91,1,Pass,0,1.0159,9,-9,-1,0,0,0,-0.333333333,9.018499506,3,1
8,10,1,Pass,0,2.6477,-7,-6,4,0,0,0,-3,6.08276253,3,0
8,97,1,Pass,0,0.9028,2,-5,8,0,0,0,1.666666667,6.506407099,3,1
8,94,1,Pass,0,1.0868,8,9,-6,0,0,0,3.666666667,8.386497084,3,1
8,95,1,Pass,0,0.9179,-7,-9,8,0,0,0,-2.666666667,9.291573243,3,1
8,94,1,Pass,0,1.1196,9,-9,8,0,0,0,2.666666667,10.11599394,3,1
8,47,1,Pass,0,1.1201,1,-4,-3,0,0,0,-2,2.645751311,3,0
8,91,2,Play,1,2.6036,-1,9,6,0,0,0,4.666666667,5.131601439,3,1
8,42,2,Play,1,1.9345,3,3,-1,0,0,0,1.666666667,2.309401077,3,0
8,95,1,Pass,0,2.4032,-9,-7,8,0,0,0,-2.666666667,9.291573243,3,1
8,95,1,Pass,0,1.9292,8,-9,7,0,0,0,2,9.539392014,3,1
8,32,2,Play,1,2.1858,4,2,6,0,0,0,4,2,3,0
8,47,1,Pass,0,2.175,-2,-4,2,0,0,0,-1.333333333,3.055050463,3,0
8,91,1,Pass,0,1.6184,6,-9,9,-8,4,-1,0.166666667,7.467708261,6,1
8,42,2,Play,1,2.2181,5,3,3,0,0,0,3.666666667,1.154700538,3,0
8,32,1,Pass,0,2.1532,-7,2,6,0,0,0,0.333333333,6.658328118,3,0
8,47,1,Pass,0,1.8352,-3,-4,2,0,0,0,-1.666666667,3.214550254,3,0
8,91,2,Play,1,2.0433,4,9,6,0,0,0,6.333333333,2.516611478,3,1
8,91,1,Pass,0,1.7094,-9,4,6,0,0,0,0.333333333,8.144527815,3,1
9,97,2,Play,1,1.5781,8,9,-7,0,0,0,3.333333333,8.96288644,3,1
9,42,2,Play,1,1.4891,3,3,-1,0,0,0,1.666666667,2.309401077,3,0
9,94,2,Play,1,1.5056,9,-9,8,0,0,0,2.666666667,10.11599394,3,1
9,94,1,Pass,0,1.4783,-9,3,-7,0,0,0,-4.333333333,6.429100507,3,1
9,32,2,Play,1,1.1581,2,3,4,0,0,0,3,1,3,0
9,97,1,Pass,0,1.0433,-5,-8,-7,0,0,0,-6.666666667,1.527525232,3,1
9,47,1,Pass,0,0.8937,1,-4,-4,0,0,0,-2.333333333,2.886751346,3,0
9,94,1,Pass,0,0.7659,-7,-6,-9,0,0,0,-7.333333333,1.527525232,3,1
9,97,2,Play,1,1.6385,2,8,-8,0,0,0,0.666666667,8.082903769,3,1
9,91,1,Pass,0,1.1061,-9,-8,9,0,0,0,-2.666666667,10.11599394,3,1
9,91,2,Play,1,1.7735,9,-9,4,0,0,0,1.333333333,9.291573243,3,1
9,10,1,Pass,0,1.8412,-2,-7,5,0,0,0,-1.333333333,6.027713773,3,0
9,32,2,Play,1,1.3147,6,6,-7,0,0,0,1.666666667,7.505553499,3,0
9,94,2,Play,1,1.2562,9,3,-9,0,0,0,1,9.16515139,3,1
9,95,2,Play,1,1.0563,7,8,-7,0,0,0,2.666666667,8.386497084,3,1
9,97,1,Pass,0,1.0889,9,-5,-8,0,0,0,-1.333333333,9.073771726,3,1
9,47,1,Pass,0,0.7568,1,-4,-3,0,0,0,-2,2.645751311,3,0
9,42,2,Play,1,1.2723,-4,3,5,0,0,0,1.333333333,4.725815626,3,0
9,32,2,Play,1,0.6892,6,3,4,0,0,0,4.333333333,1.527525232,3,0
9,42,2,Play,1,0.9395,-4,5,3,0,0,0,1.333333333,4.725815626,3,0
9,95,1,Pass,0,1.3291,-3,-9,-7,0,0,0,-6.333333333,3.055050463,3,1
9,10,1,Pass,0,0.8486,-7,-6,4,0,0,0,-3,6.08276253,3,0
9,10,1,Pass,0,0.6412,-8,-2,-6,0,0,0,-5.333333333,3.055050463,3,0
9,42,1,Pass,0,0.7396,-1,-4,5,0,0,0,0,4.582575695,3,0
9,10,1,Pass,0,0.6257,-2,-7,4,0,0,0,-1.666666667,5.507570547,3,0
9,97,2,Play,1,1.1969,2,-5,8,0,0,0,1.666666667,6.506407099,3,1
9,97,1,Pass,0,1.3441,-7,8,-5,0,0,0,-1.333333333,8.144527815,3,1
9,47,1,Pass,0,1.4307,-4,1,2,0,0,0,-0.333333333,3.214550254,3,0
9,32,2,Play,1,1.1723,4,2,6,0,0,0,4,2,3,0
9,95,1,Pass,0,1.5741,-7,8,-3,0,0,0,-0.666666667,7.767453465,3,1
9,10,2,Play,1,1.0908,5,4,-7,0,0,0,0.666666667,6.658328118,3,0
9,95,1,Pass,0,1.0906,-3,-9,8,0,0,0,-1.333333333,8.621678104,3,1
9,91,2,Play,1,1.8422,-8,6,4,0,0,0,0.666666667,7.571877794,3,1
9,91,1,Pass,0,1.7326,-8,9,-1,0,0,0,0,8.544003745,3,1
9,91,1,Pass,0,1.1783,-1,4,-9,0,0,0,-2,6.557438524,3,1
9,42,2,Play,1,1.0153,3,3,5,0,0,0,3.666666667,1.154700538,3,0
9,32,2,Play,1,0.9623,2,6,-7,0,0,0,0.333333333,6.658328118,3,0
9,47,1,Pass,0,1.0793,1,-2,-4,0,0,0,-1.666666667,2.516611478,3,0
9,94,2,Play,1,1.2095,-9,3,8,0,0,0,0.666666667,8.736894948,3,1
9,32,2,Play,1,0.9574,6,4,3,0,0,0,4.333333333,1.527525232,3,0
9,91,2,Play,1,1.1391,9,6,-8,0,0,0,2.333333333,9.073771726,3,1
9,32,2,Play,1,1.0477,-7,2,6,0,0,0,0.333333333,6.658328118,3,0
9,95,2,Play,1,0.7449,8,8,-9,0,0,0,2.333333333,9.814954576,3,1
9,94,2,Play,1,0.8633,3,-6,8,0,0,0,1.666666667,7.094598885,3,1
9,42,2,Play,1,0.889,5,3,3,0,0,0,3.666666667,1.154700538,3,0
9,91,2,Play,1,0.8399,4,9,-1,0,0,0,4,5,3,1
9,32,1,Pass,0,1.5227,2,-7,3,0,0,0,-0.666666667,5.507570547,3,0
9,94,1,Pass,0,1.0252,3,-9,-6,0,0,0,-4,6.244997998,3,1
9,10,1,Pass,0,0.8116,-2,-6,4,0,0,0,-1.333333333,5.033222957,3,0
9,42,2,Play,1,2.0901,5,-1,3,0,0,0,2.333333333,3.055050463,3,0
9,47,1,Pass,0,1.215,-4,-3,1,0,0,0,-2,2.645751311,3,0
9,91,2,Play,1,1.4267,4,6,-1,0,0,0,3,3.605551275,3,1
9,42,1,Pass,0,2.0136,3,-4,-1,0,0,0,-0.666666667,3.511884584,3,0
9,94,2,Play,1,1.4399,3,9,8,0,0,0,6.666666667,3.214550254,3,1
9,95,1,Pass,0,1.1895,7,-7,-9,0,0,0,-3,8.717797887,3,1
9,10,2,Play,1,1.7723,4,-6,5,0,0,0,1,6.08276253,3,0
9,91,1,Pass,0,1.3229,-9,4,6,0,0,0,0.333333333,8.144527815,3,1
9,94,1,Pass,0,1.0826,-7,8,-9,0,0,0,-2.666666667,9.291573243,3,1
9,95,2,Play,1,1.0985,7,8,-7,0,0,0,2.666666667,8.386497084,3,1
9,95,1,Pass,0,1.1456,-3,-7,8,0,0,0,-0.666666667,7.767453465,3,1
9,95,1,Pass,0,0.7284,-3,-7,7,0,0,0,-1,7.211102551,3,1
9,97,1,Pass,0,0.7066,2,-7,-8,0,0,0,-4.333333333,5.507570547,3,1
9,95,2,Play,1,1.0617,8,-9,7,0,0,0,2,9.539392014,3,1
9,95,1,Pass,0,1.4729,-9,8,-3,0,0,0,-1.333333333,8.621678104,3,1
9,91,1,Pass,0,4.6226,6,-9,9,-8,4,-1,0.166666667,7.467708261,6,1
9,47,1,Pass,0,1.0991,2,-2,-4,0,0,0,-1.333333333,3.055050463,3,0
9,97,2,Play,1,1.3556,8,9,-5,0,0,0,4,7.810249676,3,1
9,97,2,Play,1,0.9289,2,8,9,0,0,0,6.333333333,3.785938897,3,1
9,10,1,Pass,0,0.928,-6,-7,5,0,0,0,-2.666666667,6.658328118,3,0
9,10,1,Pass,0,0.814,4,-6,-8,0,0,0,-3.333333333,6.429100507,3,0
9,42,2,Play,1,1.6818,3,3,-4,0,0,0,0.666666667,4.041451884,3,0
9,47,1,Pass,0,0.94,-3,-4,2,0,0,0,-1.666666667,3.214550254,3,0
9,91,1,Pass,0,0.7445,6,-8,-1,0,0,0,-1,7,3,1
9,42,2,Play,1,1.3397,5,-4,3,0,0,0,1.333333333,4.725815626,3,0
9,91,1,Pass,0,1.3983,9,-9,-1,0,0,0,-0.333333333,9.018499506,3,1
9,95,2,Play,1,0.9934,7,8,8,0,0,0,7.666666667,0.577350269,3,1
9,10,1,Pass,0,0.8129,-2,5,-6,0,0,0,-1,5.567764363,3,0
9,47,1,Pass,0,0.6404,2,-2,-3,0,0,0,-1,2.645751311,3,0
9,94,1,Pass,0,0.7733,8,-6,-7,0,0,0,-1.666666667,8.386497084,3,1
9,32,2,Play,1,1.1106,6,2,3,0,0,0,3.666666667,2.081665999,3,0
9,94,2,Play,1,1.9396,8,-7,3,0,0,0,1.333333333,7.637626158,3,1
9,47,1,Pass,0,1.5059,-4,-2,-3,-4,1,2,-1.666666667,2.581988897,6,0
9,97,2,Play,1,1.3561,-7,2,8,0,0,0,1,7.549834435,3,1
9,95,1,Pass,0,1.9403,8,7,-9,-3,8,-7,0.666666667,7.916228058,6,1
9,42,2,Play,1,3.0816,3,5,-1,0,0,0,2.333333333,3.055050463,3,0
9,32,2,Play,1,1.8569,6,4,-7,0,0,0,1,7,3,0
9,94,1,Pass,0,1.0278,-6,-9,9,0,0,0,-2,9.643650761,3,1
9,10,2,Play,1,1.046,4,5,-2,0,0,0,2.333333333,3.785938897,3,0
9,42,2,Play,1,1.3283,-1,3,5,0,0,0,2.333333333,3.055050463,3,0
9,97,1,Pass,0,2.7263,2,9,-5,-7,8,-8,-0.166666667,7.574078602,6,1
9,94,2,Play,1,1.4395,-6,3,9,0,0,0,2,7.549834435,3,1
9,10,1,Pass,0,1.0726,-7,-8,5,0,0,0,-3.333333333,7.234178138,3,0
9,97,1,Pass,0,0.7897,2,-7,-5,0,0,0,-3.333333333,4.725815626,3,1
9,32,1,Pass,0,1.3402,4,3,-7,0,0,0,0,6.08276253,3,0
9,91,1,Pass,0,1.074,-8,-9,6,0,0,0,-3.666666667,8.386497084,3,1
9,47,1,Pass,0,0.6586,-4,-3,-4,0,0,0,-3.666666667,0.577350269,3,0
9,91,2,Play,1,1.2146,4,9,6,0,0,0,6.333333333,2.516611478,3,1
9,91,1,Pass,0,0.79,-1,-8,4,0,0,0,-1.666666667,6.027713773,3,1
9,97,1,Pass,0,0.6447,-8,-5,8,0,0,0,-1.666666667,8.504900548,3,1
9,42,2,Play,1,1.4057,5,-1,3,0,0,0,2.333333333,3.055050463,3,0
9,47,1,Pass,0,0.8106,-2,-4,2,0,0,0,-1.333333333,3.055050463,3,0
9,47,1,Pass,0,0.6942,-3,-2,-4,0,0,0,-3,1,3,0
9,10,1,Pass,0,0.7901,-8,5,-2,0,0,0,-1.666666667,6.506407099,3,0
9,32,2,Play,1,1.1063,2,6,6,0,0,0,4.666666667,2.309401077,3,0
9,94,1,Pass,0,1.0654,-7,3,-6,0,0,0,-3.333333333,5.507570547,3,1
9,91,2,Play,1,1.2894,6,-9,9,0,0,0,2,9.643650761,3,1
9,32,1,Pass,0,2.0985,2,-7,4,0,0,0,-0.333333333,5.859465277,3,0
9,32,1,Pass,0,1.6579,3,6,-7,0,0,0,0.666666667,6.806859286,3,0
9,94,1,Pass,0,1.0046,-6,9,-7,0,0,0,-1.333333333,8.96288644,3,1
9,94,2,Play,1,1.2635,9,8,-7,0,0,0,3.333333333,8.96288644,3,1
9,47,1,Pass,0,1.7613,-4,1,2,0,0,0,-0.333333333,3.214550254,3,0
9,42,2,Play,1,1.5902,5,3,5,0,0,0,4.333333333,1.154700538,3,0
9,10,1,Pass,0,1.0227,-8,-6,-7,0,0,0,-7,1,3,0
9,91,1,Pass,0,0.8141,-9,6,-1,0,0,0,-1.333333333,7.505553499,3,1
9,91,2,Play,1,1.5225,9,-8,4,0,0,0,1.666666667,8.736894948,3,1
9,10,1,Pass,0,1.6466,5,4,-8,0,0,0,0.333333333,7.234178138,3,0
9,97,1,Pass,0,0.9397,-8,2,-5,0,0,0,-3.666666667,5.131601439,3,1
9,47,1,Pass,0,0.6469,-3,-4,-2,0,0,0,-3,1,3,0
9,95,1,Pass,0,1.1287,-7,-9,8,0,0,0,-2.666666667,9.291573243,3,1
9,47,1,Pass,0,1.6394,2,1,-3,0,0,0,0,2.645751311,3,0
9,42,1,Pass,0,1.0589,-1,-4,3,0,0,0,-0.666666667,3.511884584,3,0
9,95,2,Play,1,2.2396,7,-3,8,0,0,0,4,6.08276253,3,1
9,97,2,Play,1,0.9962,9,8,-8,0,0,0,3,9.539392014,3,1
9,94,2,Play,1,1.1127,3,9,-7,0,0,0,1.666666667,8.082903769,3,1
9,32,2,Play,1,0.7236,3,6,6,0,0,0,5,1.732050808,3,0
9,10,1,Pass,0,0.9986,-8,-2,-7,0,0,0,-5.666666667,3.214550254,3,0
9,42,2,Play,1,1.7556,5,5,-4,0,0,0,2,5.196152423,3,0
9,42,2,Play,1,1.0226,-4,5,3,0,0,0,1.333333333,4.725815626,3,0
9,97,2,Play,1,1.2427,9,2,-8,0,0,0,1,8.544003745,3,1
9,97,2,Play,1,1.1898,2,-5,9,0,0,0,2,7,3,1
9,10,1,Pass,0,1.0424,4,-8,-7,0,0,0,-3.666666667,6.658328118,3,0
9,91,2,Play,1,1.2127,-1,9,6,0,0,0,4.666666667,5.131601439,3,1
9,95,2,Play,1,1.0481,8,8,-7,0,0,0,3,8.660254038,3,1
9,47,1,Pass,0,1.2979,1,2,-2,0,0,0,0.333333333,2.081665999,3,0
9,32,2,Play,1,1.3558,3,-7,4,2,6,6,2.333333333,4.844240567,6,0
9,10,1,Pass,0,1.1562,-2,-8,-7,4,-6,5,-2.333333333,5.680375574,6,0
9,47,1,Pass,0,0.9805,1,-2,-4,0,0,0,-1.666666667,2.516611478,3,0
9,32,2,Play,1,1.0404,3,6,2,0,0,0,3.666666667,2.081665999,3,0
9,47,1,Pass,0,1.4602,2,-4,-4,0,0,0,-2,3.464101615,3,0
9,10,1,Pass,0,1.59,-7,-2,-6,0,0,0,-5,2.645751311,3,0
9,97,1,Pass,0,1.6223,-8,9,-7,0,0,0,-2,9.539392014,3,1
9,42,2,Play,1,2.0729,5,5,-1,0,0,0,3,3.464101615,3,0
9,47,1,Pass,0,1.0597,-4,2,-3,0,0,0,-1.666666667,3.214550254,3,0
9,32,2,Play,1,1.5893,-7,3,6,0,0,0,0.666666667,6.806859286,3,0
9,32,2,Play,1,1.8412,6,-7,4,0,0,0,1,7,3,0
9,47,1,Pass,0,0.8717,-4,-2,-4,0,0,0,-3.333333333,1.154700538,3,0
9,10,1,Pass,0,0.9324,-8,-6,5,0,0,0,-3,7,3,0
9,32,2,Play,1,1.0729,4,6,6,0,0,0,5.333333333,1.154700538,3,0
9,32,2,Play,1,0.8603,2,4,6,0,0,0,4,2,3,0
9,91,1,Pass,0,1.1066,-8,4,-9,0,0,0,-4.333333333,7.234178138,3,1
9,97,1,Pass,0,0.9639,9,-7,-5,0,0,0,-1,8.717797887,3,1
9,97,1,Pass,0,0.639,-7,-8,8,0,0,0,-2.333333333,8.96288644,3,1
9,42,2,Play,1,1.8886,5,-1,5,3,3,-4,1.833333333,3.600925807,6,0
9,10,1,Pass,0,1.0476,4,-8,-2,0,0,0,-2,6,3,0
9,94,1,Pass,0,0.7064,-6,-9,8,0,0,0,-2.333333333,9.073771726,3,1
9,95,1,Pass,0,0.74,-9,-7,8,0,0,0,-2.666666667,9.291573243,3,1
9,94,2,Play,1,1.1065,8,9,-6,0,0,0,3.666666667,8.386497084,3,1
9,42,1,Pass,0,1.057,-4,-1,5,0,0,0,0,4.582575695,3,0
9,97,2,Play,1,1.282,2,9,-7,0,0,0,1.333333333,8.020806277,3,1
9,91,1,Pass,0,1.0103,-1,-9,-8,0,0,0,-6,4.358898944,3,1
9,95,1,Pass,0,0.8066,7,-3,-9,0,0,0,-1.666666667,8.082903769,3,1
9,95,2,Play,1,1.0976,7,8,-9,0,0,0,2,9.539392014,3,1
9,95,2,Play,1,1.3221,-3,8,7,0,0,0,4,6.08276253,3,1
9,94,1,Pass,0,1.139,-7,9,-9,0,0,0,-2.333333333,9.865765725,3,1
9,95,2,Play,1,1.7058,-3,8,8,0,0,0,4.333333333,6.350852961,3,1
9,94,1,Pass,0,2.0726,8,-7,-9,-6,3,9,-0.333333333,7.991662322,6,1
9,42,2,Play,1,1.2897,5,5,3,0,0,0,4.333333333,1.154700538,3,0
9,47,1,Pass,0,1.5429,-2,1,-3,0,0,0,-1.333333333,2.081665999,3,0
10,97,2,Play,1,2.1896,2,-5,9,0,0,0,2,7,3,1
10,10,1,Pass,0,2.3465,-6,-7,5,0,0,0,-2.666666667,6.658328118,3,0
10,94,2,Play,1,2.0185,8,9,-6,0,0,0,3.666666667,8.386497084,3,1
10,94,1,Pass,0,2.289200001,-7,-6,-9,0,0,0,-7.333333333,1.527525232,3,1
10,42,2,Play,1,3.4745,-4,3,5,0,0,0,1.333333333,4.725815626,3,0
10,91,1,Pass,0,2.165099998,-8,4,-9,0,0,0,-4.333333333,7.234178138,3,1
10,94,2,Play,1,4.4005,9,3,-9,0,0,0,1,9.16515139,3,1
10,10,1,Pass,0,2.065200001,4,-8,-7,0,0,0,-3.666666667,6.658328118,3,0
10,97,1,Pass,0,2.1631,-5,-8,-7,0,0,0,-6.666666667,1.527525232,3,1
10,97,1,Pass,0,2.676700001,2,-7,-8,0,0,0,-4.333333333,5.507570547,3,1
10,47,1,Pass,0,6.0299,2,1,-3,0,0,0,0,2.645751311,3,0
10,95,1,Pass,0,1.8716,-7,-9,8,0,0,0,-2.666666667,9.291573243,3,1
10,32,2,Play,1,1.7551,4,6,6,0,0,0,5.333333333,1.154700538,3,0
10,10,1,Pass,0,2.2895,-7,-8,5,0,0,0,-3.333333333,7.234178138,3,0
10,42,2,Play,1,4.1005,5,-4,3,0,0,0,1.333333333,4.725815626,3,0
10,47,1,Pass,0,2.4054,-4,-3,-4,0,0,0,-3.666666667,0.577350269,3,0
10,32,1,Pass,0,2.5401,2,-7,4,0,0,0,-0.333333333,5.859465277,3,0
10,32,2,Play,1,2.2729,3,-7,4,2,6,6,2.333333333,4.844240567,6,0
10,91,1,Pass,0,2.365699999,-8,-9,6,0,0,0,-3.666666667,8.386497084,3,1
10,95,1,Pass,0,3.2769,-9,8,-3,0,0,0,-1.333333333,8.621678104,3,1
10,97,1,Pass,0,2.058,2,-7,-5,0,0,0,-3.333333333,4.725815626,3,1
10,32,2,Play,1,3.539300001,6,4,-7,0,0,0,1,7,3,0
10,10,1,Pass,0,3.2975,4,-6,-8,0,0,0,-3.333333333,6.429100507,3,0
10,94,2,Play,1,6.146799999,-9,3,8,0,0,0,0.666666667,8.736894948,3,1
10,95,2,Play,1,3.493700001,7,8,-9,0,0,0,2,9.539392014,3,1
10,10,1,Pass,0,3.1881,-8,-6,5,0,0,0,-3,7,3,0
10,10,1,Pass,0,2.398700001,-7,-2,-6,0,0,0,-5,2.645751311,3,0
10,95,1,Pass,0,2.3795,-3,-9,8,0,0,0,-1.333333333,8.621678104,3,1
10,91,2,Play,1,4.3465,-9,4,6,0,0,0,0.333333333,8.144527815,3,1
10,47,1,Pass,0,2.307599998,-3,-4,-2,0,0,0,-3,1,3,0
10,10,1,Pass,0,2.4969,4,-8,-2,0,0,0,-2,6,3,0
10,10,1,Pass,0,2.703799999,-2,5,-6,0,0,0,-1,5.567764363,3,0
10,94,1,Pass,0,2.658200001,-7,3,-6,0,0,0,-3.333333333,5.507570547,3,1
10,10,1,Pass,0,2.244800001,-8,-2,-6,0,0,0,-5.333333333,3.055050463,3,0
10,42,2,Play,1,2.261299999,3,3,-4,0,0,0,0.666666667,4.041451884,3,0
10,95,2,Play,1,2.291,7,8,8,0,0,0,7.666666667,0.577350269,3,1
10,97,2,Play,1,2.188800001,2,8,9,0,0,0,6.333333333,3.785938897,3,1
10,91,2,Play,1,2.665700001,-8,6,4,0,0,0,0.666666667,7.571877794,3,1
10,32,2,Play,1,2.992800001,2,6,-7,0,0,0,0.333333333,6.658328118,3,0
10,42,2,Play,1,2.6825,5,5,-1,0,0,0,3,3.464101615,3,0
10,42,2,Play,1,2.849299999,5,-1,3,0,0,0,2.333333333,3.055050463,3,0
10,94,2,Play,1,4.7159,3,-6,8,0,0,0,1.666666667,7.094598885,3,1
10,10,2,Play,1,2.743,5,4,-8,0,0,0,0.333333333,7.234178138,3,0
10,97,1,Pass,0,2.521800001,-7,-8,8,0,0,0,-2.333333333,8.96288644,3,1
10,94,2,Play,1,10.5957,8,-7,-9,-6,3,9,-0.333333333,7.991662322,6,1
10,10,1,Pass,0,2.562,-8,-6,-7,0,0,0,-7,1,3,0
10,94,1,Pass,0,2.288800001,-6,-9,9,0,0,0,-2,9.643650761,3,1
10,42,1,Pass,0,2.1139,3,-4,-1,0,0,0,-0.666666667,3.511884584,3,0
10,32,2,Play,1,2.0549,2,4,6,0,0,0,4,2,3,0
10,47,1,Pass,0,2.2251,1,-4,-4,0,0,0,-2.333333333,2.886751346,3,0
10,91,1,Pass,0,3.257900002,-1,-8,4,0,0,0,-1.666666667,6.027713773,3,1
10,42,2,Play,1,2.7116,-4,5,3,0,0,0,1.333333333,4.725815626,3,0
10,47,1,Pass,0,2.8081,-2,1,-3,0,0,0,-1.333333333,2.081665999,3,0
10,94,2,Play,1,3.824200001,-6,3,9,0,0,0,2,7.549834435,3,1
10,32,2,Play,1,1.924,2,6,6,0,0,0,4.666666667,2.309401077,3,0
10,47,1,Pass,0,2.4194,-3,-2,-4,0,0,0,-3,1,3,0
10,95,2,Play,1,4.323099998,-3,8,7,0,0,0,4,6.08276253,3,1
10,32,2,Play,1,2.184200001,6,2,3,0,0,0,3.666666667,2.081665999,3,0
10,95,2,Play,1,2.0075,-3,8,8,0,0,0,4.333333333,6.350852961,3,1
10,47,1,Pass,0,3.551,-4,1,2,0,0,0,-0.333333333,3.214550254,3,0
10,10,1,Pass,0,2.878599998,-2,-6,4,0,0,0,-1.333333333,5.033222957,3,0
10,97,2,Play,1,9.922,2,-5,8,0,0,0,1.666666667,6.506407099,3,1
10,42,2,Play,1,2.1725,5,3,5,0,0,0,4.333333333,1.154700538,3,0
10,91,1,Pass,0,2.076400002,6,-8,-1,0,0,0,-1,7,3,1
10,32,2,Play,1,1.9786,6,4,3,0,0,0,4.333333333,1.527525232,3,0
10,42,1,Pass,0,2.4735,-1,-4,5,0,0,0,0,4.582575695,3,0
10,32,2,Play,1,2.5354,3,6,-7,0,0,0,0.666666667,6.806859286,3,0
10,97,1,Pass,0,2.526599998,-8,2,-5,0,0,0,-3.666666667,5.131601439,3,1
10,47,1,Pass,0,2.7469,-3,-4,2,0,0,0,-1.666666667,3.214550254,3,0
10,10,2,Play,1,2.416300001,4,5,-2,0,0,0,2.333333333,3.785938897,3,0
10,95,2,Play,1,3.7491,7,8,-7,0,0,0,2.666666667,8.386497084,3,1
10,97,2,Play,1,3.5655,2,8,-8,0,0,0,0.666666667,8.082903769,3,1
10,91,1,Pass,0,5.003099998,6,-9,9,-8,4,-1,0.166666667,7.467708261,6,1
10,91,2,Play,1,2.5805,9,-9,4,0,0,0,1.333333333,9.291573243,3,1
10,47,1,Pass,0,2.4915,2,-2,-4,0,0,0,-1.333333333,3.055050463,3,0
10,10,1,Pass,0,1.5451,-8,-2,-7,0,0,0,-5.666666667,3.214550254,3,0
10,95,2,Play,1,3.215199999,7,-3,8,0,0,0,4,6.08276253,3,1
10,91,2,Play,1,2.775099998,4,6,-1,0,0,0,3,3.605551275,3,1
10,47,1,Pass,0,2.0926,-4,-2,-4,0,0,0,-3.333333333,1.154700538,3,0
10,91,1,Pass,0,5.804300001,-8,9,-1,0,0,0,0,8.544003745,3,1
10,42,2,Play,1,2.533,-4,5,3,0,0,0,1.333333333,4.725815626,3,0
10,95,2,Play,1,2.747700001,7,8,-7,0,0,0,2.666666667,8.386497084,3,1
10,42,2,Play,1,2.125300001,-1,3,5,0,0,0,2.333333333,3.055050463,3,0
10,47,1,Pass,0,3.256,-4,1,2,0,0,0,-0.333333333,3.214550254,3,0
10,42,2,Play,1,2.423800001,3,3,-1,0,0,0,1.666666667,2.309401077,3,0
10,91,1,Pass,0,4.294,9,-8,4,0,0,0,1.666666667,8.736894948,3,1
10,97,1,Pass,0,2.512799999,-8,-5,8,0,0,0,-1.666666667,8.504900548,3,1
10,91,2,Play,1,3.3461,6,-9,9,0,0,0,2,9.643650761,3,1
10,47,1,Pass,0,2.205200001,1,-2,-4,0,0,0,-1.666666667,2.516611478,3,0
10,10,1,Pass,0,2.529,-2,-8,-7,4,-6,5,-2.333333333,5.680375574,6,0
10,42,1,Pass,0,2.3556,-1,-4,3,0,0,0,-0.666666667,3.511884584,3,0
10,42,2,Play,1,2.492800001,5,-1,5,3,3,-4,1.833333333,3.600925807,6,0
10,95,2,Play,1,3.040300001,8,8,-7,0,0,0,3,8.660254038,3,1
10,95,1,Pass,0,2.3625,-7,8,-3,0,0,0,-0.666666667,7.767453465,3,1
10,97,1,Pass,0,3.457200001,9,-7,-5,0,0,0,-1,8.717797887,3,1
10,97,2,Play,1,2.113300001,8,9,-7,0,0,0,3.333333333,8.96288644,3,1
10,95,2,Play,1,1.8094,8,8,-9,0,0,0,2.333333333,9.814954576,3,1
10,47,1,Pass,0,2.256700001,-4,2,-3,0,0,0,-1.666666667,3.214550254,3,0
10,91,1,Pass,0,1.363700001,-1,-9,-8,0,0,0,-6,4.358898944,3,1
10,97,1,Pass,0,1.5734,-8,9,-7,0,0,0,-2,9.539392014,3,1
10,32,2,Play,1,2.973799999,3,6,6,0,0,0,5,1.732050808,3,0
10,94,2,Play,1,5.657700001,9,-9,8,0,0,0,2.666666667,10.11599394,3,1
10,32,2,Play,1,4.919799999,4,3,-7,0,0,0,0,6.08276253,3,0
10,94,1,Pass,0,2.240700001,-7,8,-9,0,0,0,-2.666666667,9.291573243,3,1
10,47,1,Pass,0,2.232199999,-2,-4,2,0,0,0,-1.333333333,3.055050463,3,0
10,32,2,Play,1,2.273,-7,3,6,0,0,0,0.666666667,6.806859286,3,0
10,91,2,Play,1,1.691199999,4,9,6,0,0,0,6.333333333,2.516611478,3,1
10,95,2,Play,1,7.4386,8,7,-9,-3,8,-7,0.666666667,7.916228058,6,1
10,97,2,Play,1,3.196699999,2,9,-7,0,0,0,1.333333333,8.020806277,3,1
10,42,1,Pass,0,2.431799999,-4,-1,5,0,0,0,0,4.582575695,3,0
10,94,2,Play,1,2.3806,3,9,8,0,0,0,6.666666667,3.214550254,3,1
10,47,1,Pass,0,2.638,-4,-2,-3,-4,1,2,-1.666666667,2.581988897,6,0
10,47,1,Pass,0,1.926299999,1,-4,-3,0,0,0,-2,2.645751311,3,0
10,95,1,Pass,0,2.2571,-3,-7,7,0,0,0,-1,7.211102551,3,1
10,32,2,Play,1,2.0951,6,3,4,0,0,0,4.333333333,1.527525232,3,0
10,32,2,Play,1,2.1765,3,6,2,0,0,0,3.666666667,2.081665999,3,0
10,97,1,Pass,0,2.576299999,9,-5,-8,0,0,0,-1.333333333,9.073771726,3,1
10,95,1,Pass,0,2.525,-9,-7,8,0,0,0,-2.666666667,9.291573243,3,1
10,97,2,Play,1,2.9881,-7,2,8,0,0,0,1,7.549834435,3,1
10,94,1,Pass,0,2.223299999,3,-9,-6,0,0,0,-4,6.244997998,3,1
10,91,2,Play,1,2.921300001,-1,9,6,0,0,0,4.666666667,5.131601439,3,1
10,91,2,Play,1,2.043700001,4,9,-1,0,0,0,4,5,3,1
10,94,2,Play,1,4.955800001,8,-7,3,0,0,0,1.333333333,7.637626158,3,1
10,94,1,Pass,0,2.4715,-6,9,-7,0,0,0,-1.333333333,8.96288644,3,1
10,32,2,Play,1,1.84,6,6,-7,0,0,0,1.666666667,7.505553499,3,0
10,10,1,Pass,0,2.7664,-7,-6,4,0,0,0,-3,6.08276253,3,0
10,10,1,Pass,0,2.381,-2,-7,4,0,0,0,-1.666666667,5.507570547,3,0
10,95,1,Pass,0,2.057599998,-3,-7,8,0,0,0,-0.666666667,7.767453465,3,1
10,94,2,Play,1,2.907900002,9,8,-7,0,0,0,3.333333333,8.96288644,3,1
10,91,2,Play,1,5.307599998,9,6,-8,0,0,0,2.333333333,9.073771726,3,1
10,95,1,Pass,0,3.875699999,7,-7,-9,0,0,0,-3,8.717797887,3,1
10,94,1,Pass,0,2.8491,8,-6,-7,0,0,0,-1.666666667,8.386497084,3,1
10,94,1,Pass,0,2.260200001,-9,3,-7,0,0,0,-4.333333333,6.429100507,3,1
10,10,2,Play,1,3.3904,4,-6,5,0,0,0,1,6.08276253,3,0
10,10,1,Pass,0,2.731,-2,-7,5,0,0,0,-1.333333333,6.027713773,3,0
10,32,2,Play,1,2.0261,4,2,6,0,0,0,4,2,3,0
10,42,2,Play,1,1.628200001,3,3,5,0,0,0,3.666666667,1.154700538,3,0
10,47,2,Play,1,3.106200001,1,2,-2,0,0,0,0.333333333,2.081665999,3,0
10,32,2,Play,1,2.4936,-7,2,6,0,0,0,0.333333333,6.658328118,3,0
10,42,2,Play,1,2.003200001,5,3,3,0,0,0,3.666666667,1.154700538,3,0
10,32,1,Pass,0,2.655400002,2,-7,3,0,0,0,-0.666666667,5.507570547,3,0
10,95,1,Pass,0,1.598,-3,-9,-7,0,0,0,-6.333333333,3.055050463,3,1
